radians,pos_1,pos_2,type,degrees,map_file,PE,object,isFiller,outdoors_response,stimulus,old_new,trials.thisRepN,trials.thisTrialN,trials.thisN,trials.thisIndex,location_loop.thisRepN,location_loop.thisTrialN,location_loop.thisN,location_loop.thisIndex,instructions_text.started,key_resp.started,key_resp.keys,key_resp.rt,Instructions_2_text.started,instr_2_resp.started,instr_2_resp.keys,instr_2_resp.rt,Instructions_3_text.started,Instr_3_resp.started,Instr_3_resp.keys,Instr_3_resp.rt,Instr_4_text.started,Instr_4_resp.started,Instr_4_resp.keys,Instr_4_resp.rt,text_4.started,image_feedb.started,recog_resp.started,recog_prompt.started,recog_option_left.started,recog_option_right.started,recog_resp.keys,recog_resp.rt,image_feedb_2.started,conf_resp.started,conf_prompt.started,conf_1.started,conf_2.started,conf_3.started,conf_4.started,conf_5.started,conf_6.started,conf_resp.keys,conf_resp.rt,text_4.stopped,image_2.started,predict_prompt.started,line.started,response,key_resp_2.keys,key_resp_2.rt,instructions_text_2.started,key_resp_3.started,key_resp_3.keys,key_resp_3.rt,participant,date,expName,psychopyVersion,frameRate,
,,,,,,,,,,,,,,,,,,,,14.224657416998525,14.224657416998525,space,6.22362483300094,,,,,,,,,,,,,,,,,,,,,,,,,,,,,,,,,,,,,,,,,,,992,2022-11-28_09h40.15.205,recognition,2022.2.4,59.90002697498228,
,,,,,,,,,,,,,,,,,,,,,,,,20.527532166997844,20.527532166997844,space,7.887391417003528,,,,,,,,,,,,,,,,,,,,,,,,,,,,,,,,,,,,,,,992,2022-11-28_09h40.15.205,recognition,2022.2.4,59.90002697498228,
,,,,,,,,,,,,,,,,,,,,,,,,,,,,28.434583499998553,28.434583499998553,space,21.566648165993684,,,,,,,,,,,,,,,,,,,,,,,,,,,,,,,,,,,992,2022-11-28_09h40.15.205,recognition,2022.2.4,59.90002697498228,
,,,,,,,,,,,,,,,,,,,,,,,,,,,,,,,,50.017402083998604,50.017402083998604,space,27.800021041002765,,,,,,,,,,,,,,,,,,,,,,,,,,,,,,,992,2022-11-28_09h40.15.205,recognition,2022.2.4,59.90002697498228,
None,None,None,None,None,maps/google_map_1.png,None,objects/2/2_96.jpg,None,outdoors,Sphinx.jpg,new,0,0,0,0,,,,,,,,,,,,,,,,,,,,,91.1522154589984,78.132993584004,78.132993584004,78.132993584004,78.132993584004,78.132993584004,right,1.411038207996171,79.86055066699919,79.86055066699919,79.86055066699919,79.86055066699919,79.86055066699919,79.86055066699919,79.86055066699919,79.86055066699919,79.86055066699919,1,11.274797748999845,91.40221858400037,,,,,,,,,,,992,2022-11-28_09h40.15.205,recognition,2022.2.4,59.90002697498228,
4.70120448179272,238.319327731092,230.27731092437,singletons,269.495798319328,maps/google_map_1.png,None,objects/1/1_71.jpg,0.0,outdoors,TotemPole.jpg,old,0,1,1,1,0,0,0,0,,,,,,,,,,,,,,,,,97.88553037500242,91.6518818340046,91.6518818340046,91.6518818340046,91.6518818340046,91.6518818340046,left,3.51075299999502,95.45198066699959,95.45198066699959,95.45198066699959,95.45198066699959,95.45198066699959,95.45198066699959,95.45198066699959,95.45198066699959,95.45198066699959,6,2.410029165999731,98.37830362500245,98.37830362500245,98.37830362500245,98.37830362500245,222.5,['return'],[9.178794998995727],,,,,992,2022-11-28_09h40.15.205,recognition,2022.2.4,59.90002697498228,
4.70120448179272,238.319327731092,230.27731092437,singletons,269.495798319328,maps/google_map_1.png,None,objects/1/1_71.jpg,0.0,outdoors,TotemPole.jpg,old,0,1,1,1,,,,,,,,,,,,,,,,,,,,,,,,,,,,,,,,,,,,,,,,,,,,,,,,,,,992,2022-11-28_09h40.15.205,recognition,2022.2.4,59.90002697498228,
None,None,None,None,None,maps/google_map_1.png,None,objects/2/2_81.jpg,None,outdoors,ChariotGold.jpg,new,0,2,2,2,,,,,,,,,,,,,,,,,,,,,111.55153433400119,107.82059054200363,107.82059054200363,107.82059054200363,107.82059054200363,107.82059054200363,right,2.169530290993862,110.28415674999997,110.28415674999997,110.28415674999997,110.28415674999997,110.28415674999997,110.28415674999997,110.28415674999997,110.28415674999997,110.28415674999997,1,1.244867333000002,111.80201037500228,,,,,,,,,,,992,2022-11-28_09h40.15.205,recognition,2022.2.4,59.90002697498228,
None,None,None,None,None,maps/google_map_1.png,None,objects/2/2_107.jpg,None,indoors,Plunger.jpg,new,0,3,3,3,,,,,,,,,,,,,,,,,,,,,126.68592358400201,112.05184858400025,112.05184858400025,112.05184858400025,112.05184858400025,112.05184858400025,left,5.508520582996425,117.85002179200092,117.85002179200092,117.85002179200092,117.85002179200092,117.85002179200092,117.85002179200092,117.85002179200092,117.85002179200092,117.85002179200092,4,8.808270292000088,126.93602162499883,,,,,,,,,,,992,2022-11-28_09h40.15.205,recognition,2022.2.4,59.90002697498228,
2.08531791257233,148.319327731092,328.319327731092,medium,119.540517281217,maps/google_map_1.png,61.2211895501241,objects/1/1_110.jpg,0.0,outdoors,Boot_Rain.jpg,old,0,4,4,4,0,0,0,0,,,,,,,,,,,,,,,,,130.93583675000264,127.1850094170004,127.1850094170004,127.1850094170004,127.1850094170004,127.1850094170004,left,1.0641929170014919,128.53464333400188,128.53464333400188,128.53464333400188,128.53464333400188,128.53464333400188,128.53464333400188,128.53464333400188,128.53464333400188,128.53464333400188,6,2.3826245419986662,131.40781016700203,131.40781016700203,131.40781016700203,131.40781016700203,134.5,['return'],[4.630769291004981],,,,,992,2022-11-28_09h40.15.205,recognition,2022.2.4,59.90002697498228,
2.08531791257233,148.319327731092,328.319327731092,medium,119.540517281217,maps/google_map_1.png,61.2211895501241,objects/1/1_110.jpg,0.0,outdoors,Boot_Rain.jpg,old,0,4,4,4,,,,,,,,,,,,,,,,,,,,,,,,,,,,,,,,,,,,,,,,,,,,,,,,,,,992,2022-11-28_09h40.15.205,recognition,2022.2.4,59.90002697498228,
1.0368956364235502,148.319327731092,328.319327731092,low,59.43987724721,maps/google_map_1.png,1.12054951611758,objects/1/1_6.jpg,0.0,indoors,Syrup_Maple.jpg,old,0,5,5,5,0,0,0,0,,,,,,,,,,,,,,,,,141.9856996669987,136.30389500000456,136.30389500000456,136.30389500000456,136.30389500000456,136.30389500000456,left,2.0217362489929656,138.62074900000152,138.62074900000152,138.62074900000152,138.62074900000152,138.62074900000152,138.62074900000152,138.62074900000152,138.62074900000152,138.62074900000152,6,3.3477323329934734,142.44833837499755,142.44833837499755,142.44833837499755,142.44833837499755,30.5,['return'],[5.357031998995808],,,,,992,2022-11-28_09h40.15.205,recognition,2022.2.4,59.90002697498228,
1.0368956364235502,148.319327731092,328.319327731092,low,59.43987724721,maps/google_map_1.png,1.12054951611758,objects/1/1_6.jpg,0.0,indoors,Syrup_Maple.jpg,old,0,5,5,5,,,,,,,,,,,,,,,,,,,,,,,,,,,,,,,,,,,,,,,,,,,,,,,,,,,992,2022-11-28_09h40.15.205,recognition,2022.2.4,59.90002697498228,
6.22893896519562,71.8991596638655,251.89915966386602,low,357.072934310577,maps/google_map_1.png,15.173774646711099,objects/1/1_67.jpg,0.0,indoors,Stamp.jpg,old,0,6,6,6,0,0,0,0,,,,,,,,,,,,,,,,,151.66907408399857,148.06984175000252,148.06984175000252,148.06984175000252,148.06984175000252,148.06984175000252,left,1.9139192489965353,150.2685602920028,150.2685602920028,150.2685602920028,150.2685602920028,150.2685602920028,150.2685602920028,150.2685602920028,150.2685602920028,150.2685602920028,6,1.3838456239973311,152.1318762919982,152.1318762919982,152.1318762919982,152.1318762919982,24.5,['return'],[6.821237457996176],,,,,992,2022-11-28_09h40.15.205,recognition,2022.2.4,59.90002697498228,
6.22893896519562,71.8991596638655,251.89915966386602,low,357.072934310577,maps/google_map_1.png,15.173774646711099,objects/1/1_67.jpg,0.0,indoors,Stamp.jpg,old,0,6,6,6,,,,,,,,,,,,,,,,,,,,,,,,,,,,,,,,,,,,,,,,,,,,,,,,,,,992,2022-11-28_09h40.15.205,recognition,2022.2.4,59.90002697498228,
None,None,None,None,None,maps/google_map_1.png,None,objects/2/2_112.jpg,None,indoors,HairClipper.jpg,new,0,7,7,7,,,,,,,,,,,,,,,,,,,,,164.03541654199944,159.2191673749985,159.2191673749985,159.2191673749985,159.2191673749985,159.2191673749985,right,2.354058208002243,161.86847979199956,161.86847979199956,161.86847979199956,161.86847979199956,161.86847979199956,161.86847979199956,161.86847979199956,161.86847979199956,161.86847979199956,1,2.139490665998892,164.28608045900182,,,,,,,,,,,992,2022-11-28_09h40.15.205,recognition,2022.2.4,59.90002697498228,
None,None,None,None,None,maps/google_map_1.png,None,objects/2/2_119.jpg,None,outdoors,Statue_Jesus.jpg,new,0,8,8,8,,,,,,,,,,,,,,,,,,,,,167.65296891699836,164.53605145899928,164.53605145899928,164.53605145899928,164.53605145899928,164.53605145899928,right,2.022979082998063,166.8520351670013,166.8520351670013,166.8520351670013,166.8520351670013,166.8520351670013,166.8520351670013,166.8520351670013,166.8520351670013,166.8520351670013,1,0.7726654579964816,167.90290229200036,,,,,,,,,,,992,2022-11-28_09h40.15.205,recognition,2022.2.4,59.90002697498228,
1.38722744858078,148.319327731092,328.319327731092,low,79.5225925938027,maps/google_map_1.png,21.203264862710302,objects/1/1_125.jpg,0.0,outdoors,Pickaxe.jpg,old,0,9,9,9,0,0,0,0,,,,,,,,,,,,,,,,,173.51981591700314,168.15254904200265,168.15254904200265,168.15254904200265,168.15254904200265,168.15254904200265,left,3.094162207999034,171.55134208399977,171.55134208399977,171.55134208399977,171.55134208399977,171.55134208399977,171.55134208399977,171.55134208399977,171.55134208399977,171.55134208399977,6,1.9454247499961639,173.98820150000392,173.98820150000392,173.98820150000392,173.98820150000392,119.5,['return'],[7.693267124996055],,,,,992,2022-11-28_09h40.15.205,recognition,2022.2.4,59.90002697498228,
1.38722744858078,148.319327731092,328.319327731092,low,79.5225925938027,maps/google_map_1.png,21.203264862710302,objects/1/1_125.jpg,0.0,outdoors,Pickaxe.jpg,old,0,9,9,9,,,,,,,,,,,,,,,,,,,,,,,,,,,,,,,,,,,,,,,,,,,,,,,,,,,992,2022-11-28_09h40.15.205,recognition,2022.2.4,59.90002697498228,
5.5995671402764,71.8991596638655,251.89915966386602,low,320.994294665526,maps/google_map_1.png,20.9048649983393,objects/1/1_96.jpg,0.0,outdoors,Backpack_Travel.jpg,old,0,10,10,10,0,0,0,0,,,,,,,,,,,,,,,,,186.9533765419983,181.95461108400195,181.95461108400195,181.95461108400195,181.95461108400195,181.95461108400195,left,3.429869708001206,185.67038458400202,185.67038458400202,185.67038458400202,185.67038458400202,185.67038458400202,185.67038458400202,185.67038458400202,185.67038458400202,185.67038458400202,6,1.2507333750036196,187.41836583400436,187.41836583400436,187.41836583400436,187.41836583400436,235.0,['return'],[3.46517304200097],,,,,992,2022-11-28_09h40.15.205,recognition,2022.2.4,59.90002697498228,
5.5995671402764,71.8991596638655,251.89915966386602,low,320.994294665526,maps/google_map_1.png,20.9048649983393,objects/1/1_96.jpg,0.0,outdoors,Backpack_Travel.jpg,old,0,10,10,10,,,,,,,,,,,,,,,,,,,,,,,,,,,,,,,,,,,,,,,,,,,,,,,,,,,992,2022-11-28_09h40.15.205,recognition,2022.2.4,59.90002697498228,
None,None,None,None,None,maps/google_map_1.png,None,objects/2/2_50.jpg,None,indoors,DVDPlayer.jpg,new,0,11,11,11,,,,,,,,,,,,,,,,,,,,,200.60373158400034,191.1542443340004,191.1542443340004,191.1542443340004,191.1542443340004,191.1542443340004,right,4.696941583002626,196.13700933400105,196.13700933400105,196.13700933400105,196.13700933400105,196.13700933400105,196.13700933400105,196.13700933400105,196.13700933400105,196.13700933400105,2,4.448242457998276,200.85337945900392,,,,,,,,,,,992,2022-11-28_09h40.15.205,recognition,2022.2.4,59.90002697498228,
3.07446109398633,71.8991596638655,251.89915966386602,high,176.24299264889802,maps/google_map_1.png,165.656167014968,objects/1/1_130.jpg,0.0,indoors,PillBottle_Spilled.jpg,old,0,12,12,12,0,0,0,0,,,,,,,,,,,,,,,,,204.83582975000172,201.10279091700068,201.10279091700068,201.10279091700068,201.10279091700068,201.10279091700068,left,1.776339874995756,203.16772991700418,203.16772991700418,203.16772991700418,203.16772991700418,203.16772991700418,203.16772991700418,203.16772991700418,203.16772991700418,203.16772991700418,6,1.6473032909998437,205.30058591700072,205.30058591700072,205.30058591700072,205.30058591700072,223.0,['return'],[5.592964207993646],,,,,992,2022-11-28_09h40.15.205,recognition,2022.2.4,59.90002697498228,
3.07446109398633,71.8991596638655,251.89915966386602,high,176.24299264889802,maps/google_map_1.png,165.656167014968,objects/1/1_130.jpg,0.0,indoors,PillBottle_Spilled.jpg,old,0,12,12,12,,,,,,,,,,,,,,,,,,,,,,,,,,,,,,,,,,,,,,,,,,,,,,,,,,,992,2022-11-28_09h40.15.205,recognition,2022.2.4,59.90002697498228,
1.2201187464001002,148.319327731092,328.319327731092,low,69.9431128509614,maps/google_map_1.png,11.623785119869002,objects/1/1_101.jpg,0.0,indoors,Chicken_FriedWing.jpg,old,0,13,13,13,0,0,0,0,,,,,,,,,,,,,,,,,214.8371066250038,211.1551054590018,211.1551054590018,211.1551054590018,211.1551054590018,211.1551054590018,left,1.5729534159981995,213.02172879200225,213.02172879200225,213.02172879200225,213.02172879200225,213.02172879200225,213.02172879200225,213.02172879200225,213.02172879200225,213.02172879200225,6,1.7898979169985978,215.30066470900056,215.30066470900056,215.30066470900056,215.30066470900056,31.5,['return'],[3.905752915998164],,,,,992,2022-11-28_09h40.15.205,recognition,2022.2.4,59.90002697498228,
1.2201187464001002,148.319327731092,328.319327731092,low,69.9431128509614,maps/google_map_1.png,11.623785119869002,objects/1/1_101.jpg,0.0,indoors,Chicken_FriedWing.jpg,old,0,13,13,13,,,,,,,,,,,,,,,,,,,,,,,,,,,,,,,,,,,,,,,,,,,,,,,,,,,992,2022-11-28_09h40.15.205,recognition,2022.2.4,59.90002697498228,
5.7887617121071395,71.8991596638655,251.89915966386602,low,331.839843369199,maps/google_map_1.png,10.0593162946665,objects/1/1_76.jpg,0.0,indoors,CoffeePot.jpg,old,0,14,14,14,0,0,0,0,,,,,,,,,,,,,,,,,223.08670433400403,219.4713736670019,219.4713736670019,219.4713736670019,219.4713736670019,219.4713736670019,left,1.4646303330009687,221.23723783400055,221.23723783400055,221.23723783400055,221.23723783400055,221.23723783400055,221.23723783400055,221.23723783400055,221.23723783400055,221.23723783400055,6,1.8315969160030363,223.55116104199988,223.55116104199988,223.55116104199988,223.55116104199988,31.5,['return'],[3.6451559999986785],,,,,992,2022-11-28_09h40.15.205,recognition,2022.2.4,59.90002697498228,
5.7887617121071395,71.8991596638655,251.89915966386602,low,331.839843369199,maps/google_map_1.png,10.0593162946665,objects/1/1_76.jpg,0.0,indoors,CoffeePot.jpg,old,0,14,14,14,,,,,,,,,,,,,,,,,,,,,,,,,,,,,,,,,,,,,,,,,,,,,,,,,,,992,2022-11-28_09h40.15.205,recognition,2022.2.4,59.90002697498228,
5.17959802888803,71.8991596638655,251.89915966386602,low,296.91963222925,maps/google_map_1.png,44.9795274346153,objects/1/1_69.jpg,0.0,indoors,Protractor.jpg,old,0,15,15,15,0,0,0,0,,,,,,,,,,,,,,,,,232.2368200839992,227.4710019999984,227.4710019999984,227.4710019999984,227.4710019999984,227.4710019999984,left,3.2338051669939887,231.00370391699835,231.00370391699835,231.00370391699835,231.00370391699835,231.00370391699835,231.00370391699835,231.00370391699835,231.00370391699835,231.00370391699835,6,1.2091865000038524,232.70032499999797,232.70032499999797,232.70032499999797,232.70032499999797,327.5,['return'],[3.2675295829976676],,,,,992,2022-11-28_09h40.15.205,recognition,2022.2.4,59.90002697498228,
5.17959802888803,71.8991596638655,251.89915966386602,low,296.91963222925,maps/google_map_1.png,44.9795274346153,objects/1/1_69.jpg,0.0,indoors,Protractor.jpg,old,0,15,15,15,,,,,,,,,,,,,,,,,,,,,,,,,,,,,,,,,,,,,,,,,,,,,,,,,,,992,2022-11-28_09h40.15.205,recognition,2022.2.4,59.90002697498228,
None,None,None,None,None,maps/google_map_1.png,None,objects/2/2_99.jpg,None,indoors,WaterCooler.jpg,new,0,16,16,16,,,,,,,,,,,,,,,,,,,,,240.20420783400186,236.25479591700423,236.25479591700423,236.25479591700423,236.25479591700423,236.25479591700423,right,2.2877517499946407,238.83806704200106,238.83806704200106,238.83806704200106,238.83806704200106,238.83806704200106,238.83806704200106,238.83806704200106,238.83806704200106,238.83806704200106,1,1.3413998329924652,238.83806704200106,,,,,,,,,,,992,2022-11-28_09h40.15.205,recognition,2022.2.4,59.90002697498228,
5.41352391396646,71.8991596638655,251.89915966386602,low,310.329396342027,maps/google_map_1.png,31.5697633218389,objects/1/1_129.jpg,0.0,indoors,Shoes_DutchClogs.jpg,old,0,17,17,17,0,0,0,0,,,,,,,,,,,,,,,,,244.88778062500205,240.72043175,240.72043175,240.72043175,240.72043175,240.72043175,left,2.0559129169996595,243.07148900000175,243.07148900000175,243.07148900000175,243.07148900000175,243.07148900000175,243.07148900000175,243.07148900000175,243.07148900000175,243.07148900000175,6,1.788834290993691,243.07148900000175,245.35494479200133,245.35494479200133,245.35494479200133,65.5,['return'],[4.344340208001086],,,,,992,2022-11-28_09h40.15.205,recognition,2022.2.4,59.90002697498228,
5.41352391396646,71.8991596638655,251.89915966386602,low,310.329396342027,maps/google_map_1.png,31.5697633218389,objects/1/1_129.jpg,0.0,indoors,Shoes_DutchClogs.jpg,old,0,17,17,17,,,,,,,,,,,,,,,,,,,,,,,,,,,,,,,,,,,,,,,,,,,,,,,,,,,992,2022-11-28_09h40.15.205,recognition,2022.2.4,59.90002697498228,
4.2919573003708305,148.319327731092,328.319327731092,high,246.03576881106702,maps/google_map_1.png,172.28355892002602,objects/1/1_64.jpg,0.0,indoors,Socks_Baby.jpg,old,0,18,18,18,0,0,0,0,,,,,,,,,,,,,,,,,255.3698038750008,249.97257579200232,249.97257579200232,249.97257579200232,249.97257579200232,249.97257579200232,left,1.4992685410034028,251.7705122499974,251.7705122499974,251.7705122499974,251.7705122499974,251.7705122499974,251.7705122499974,251.7705122499974,251.7705122499974,251.7705122499974,6,3.5823382080052397,255.8333939170043,255.8333939170043,255.8333939170043,255.8333939170043,44.5,['return'],[5.873475958003837],,,,,992,2022-11-28_09h40.15.205,recognition,2022.2.4,59.90002697498228,
4.2919573003708305,148.319327731092,328.319327731092,high,246.03576881106702,maps/google_map_1.png,172.28355892002602,objects/1/1_64.jpg,0.0,indoors,Socks_Baby.jpg,old,0,18,18,18,,,,,,,,,,,,,,,,,,,,,,,,,,,,,,,,,,,,,,,,,,,,,,,,,,,992,2022-11-28_09h40.15.205,recognition,2022.2.4,59.90002697498228,
None,None,None,None,None,maps/google_map_1.png,None,objects/2/2_42.jpg,None,outdoors,DivingBoard.jpg,new,0,19,19,19,,,,,,,,,,,,,,,,,,,,,281.4215044590019,261.971795999998,261.971795999998,261.971795999998,261.971795999998,261.971795999998,right,2.1435652079962892,264.4041895000046,264.4041895000046,264.4041895000046,264.4041895000046,264.4041895000046,264.4041895000046,264.4041895000046,264.4041895000046,264.4041895000046,1,16.998934041999746,281.6715556670024,,,,,,,,,,,992,2022-11-28_09h40.15.205,recognition,2022.2.4,59.90002697498228,
2.53825212234297,71.8991596638655,251.89915966386602,high,145.50489873303698,maps/google_map_1.png,163.60573906917102,objects/1/1_4.jpg,0.0,outdoors,Jet.jpg,old,0,20,20,20,0,0,0,0,,,,,,,,,,,,,,,,,285.45463404199836,281.9207545419995,281.9207545419995,281.9207545419995,281.9207545419995,281.9207545419995,left,1.8000187909929082,284.0039838340017,284.0039838340017,284.0039838340017,284.0039838340017,284.0039838340017,284.0039838340017,284.0039838340017,284.0039838340017,284.0039838340017,6,1.4334085000009509,285.91720945900306,285.91720945900306,285.91720945900306,285.91720945900306,224.0,['return'],[1.9667582500042045],,,,,992,2022-11-28_09h40.15.205,recognition,2022.2.4,59.90002697498228,
2.53825212234297,71.8991596638655,251.89915966386602,high,145.50489873303698,maps/google_map_1.png,163.60573906917102,objects/1/1_4.jpg,0.0,outdoors,Jet.jpg,old,0,20,20,20,,,,,,,,,,,,,,,,,,,,,,,,,,,,,,,,,,,,,,,,,,,,,,,,,,,992,2022-11-28_09h40.15.205,recognition,2022.2.4,59.90002697498228,
None,None,None,None,None,maps/google_map_1.png,None,objects/2/2_48.jpg,None,outdoors,Archery_ArrowsBows.jpg,new,0,21,21,21,,,,,,,,,,,,,,,,,,,,,298.88773783400393,288.15562120899995,288.15562120899995,288.15562120899995,288.15562120899995,288.15562120899995,right,5.5215024999997695,293.9706975000008,293.9706975000008,293.9706975000008,293.9706975000008,293.9706975000008,293.9706975000008,293.9706975000008,293.9706975000008,293.9706975000008,1,4.8986507919980795,299.1382957500027,,,,,,,,,,,992,2022-11-28_09h40.15.205,recognition,2022.2.4,59.90002697498228,
None,None,None,None,None,maps/google_map_1.png,None,objects/2/2_115.jpg,None,indoors,Maraca.jpg,new,0,22,22,22,,,,,,,,,,,,,,,,,,,,,304.63856687500083,299.3876865839993,299.3876865839993,299.3876865839993,299.3876865839993,299.3876865839993,right,4.461514123999223,304.1543542090003,304.1543542090003,304.1543542090003,304.1543542090003,304.1543542090003,304.1543542090003,304.1543542090003,304.1543542090003,304.1543542090003,1,0.4658517909992952,304.88876141700166,,,,,,,,,,,992,2022-11-28_09h40.15.205,recognition,2022.2.4,59.90002697498228,
None,None,None,None,None,maps/google_map_1.png,None,objects/2/2_39.jpg,None,indoors,Blackboard.jpg,new,0,23,23,23,,,,,,,,,,,,,,,,,,,,,309.0883480839984,305.1380062919998,305.1380062919998,305.1380062919998,305.1380062919998,305.1380062919998,right,2.6927111240001977,308.12147412500053,308.12147412500053,308.12147412500053,308.12147412500053,308.12147412500053,308.12147412500053,308.12147412500053,308.12147412500053,308.12147412500053,1,0.9402801659962279,309.33741725000436,,,,,,,,,,,992,2022-11-28_09h40.15.205,recognition,2022.2.4,59.90002697498228,
None,None,None,None,None,maps/google_map_1.png,None,objects/2/2_108.jpg,None,outdoors,BasketballHoop.jpg,new,0,24,24,24,,,,,,,,,,,,,,,,,,,,,311.52141970900266,309.5880964590033,309.5880964590033,309.5880964590033,309.5880964590033,309.5880964590033,right,1.1155477489955956,310.9858064170039,310.9858064170039,310.9858064170039,310.9858064170039,310.9858064170039,310.9858064170039,310.9858064170039,310.9858064170039,310.9858064170039,1,0.5054056670051068,311.77076574999955,,,,,,,,,,,992,2022-11-28_09h40.15.205,recognition,2022.2.4,59.90002697498228,
None,None,None,None,None,maps/google_map_1.png,None,objects/2/2_93.jpg,None,indoors,Garbage_Can.jpg,new,0,25,25,25,,,,,,,,,,,,,,,,,,,,,315.5547573340009,312.0212874589997,312.0212874589997,312.0212874589997,312.0212874589997,312.0212874589997,right,2.5562116660003085,314.8695384169987,314.8695384169987,314.8695384169987,314.8695384169987,314.8695384169987,314.8695384169987,314.8695384169987,314.8695384169987,314.8695384169987,1,0.6671156659940607,315.8052277090028,,,,,,,,,,,992,2022-11-28_09h40.15.205,recognition,2022.2.4,59.90002697498228,
None,None,None,None,None,maps/google_map_1.png,None,objects/2/2_121.jpg,None,indoors,Toy_ElephantPlastic.jpg,new,0,26,26,26,,,,,,,,,,,,,,,,,,,,,318.0052215840042,316.0547237089995,316.0547237089995,316.0547237089995,316.0547237089995,316.0547237089995,right,0.9821763740037568,317.3210619169986,317.3210619169986,317.3210619169986,317.3210619169986,317.3210619169986,317.3210619169986,317.3210619169986,317.3210619169986,317.3210619169986,1,0.6658135419929749,318.25468312500016,,,,,,,,,,,992,2022-11-28_09h40.15.205,recognition,2022.2.4,59.90002697498228,
None,None,None,None,None,maps/google_map_1.png,None,objects/2/2_75.jpg,None,indoors,Cabinet_Display.jpg,new,0,27,27,27,,,,,,,,,,,,,,,,,,,,,320.4718565000003,318.50615179200395,318.50615179200395,318.50615179200395,318.50615179200395,318.50615179200395,right,1.213826291001169,320.0044958340004,320.0044958340004,320.0044958340004,320.0044958340004,320.0044958340004,320.0044958340004,320.0044958340004,320.0044958340004,320.0044958340004,1,0.4383394159958698,320.72190687499824,,,,,,,,,,,992,2022-11-28_09h40.15.205,recognition,2022.2.4,59.90002697498228,
None,None,None,None,None,maps/google_map_1.png,None,objects/2/2_83.jpg,None,indoors,Almond.jpg,new,0,28,28,28,,,,,,,,,,,,,,,,,,,,,322.52183070900355,320.9722948339986,320.9722948339986,320.9722948339986,320.9722948339986,320.9722948339986,right,0.8144804160037893,322.0717745840011,322.0717745840011,322.0717745840011,322.0717745840011,322.0717745840011,322.0717745840011,322.0717745840011,322.0717745840011,322.0717745840011,1,0.42563487400184385,322.77179295899987,,,,,,,,,,,992,2022-11-28_09h40.15.205,recognition,2022.2.4,59.90002697498228,
None,None,None,None,None,maps/google_map_1.png,None,objects/2/2_111.jpg,None,outdoors,Sign_NoParking.jpg,new,0,29,29,29,,,,,,,,,,,,,,,,,,,,,324.88834812500136,323.02182225000433,323.02182225000433,323.02182225000433,323.02182225000433,323.02182225000433,right,0.7835285830005887,324.0879789590035,324.0879789590035,324.0879789590035,324.0879789590035,324.0879789590035,324.0879789590035,324.0879789590035,324.0879789590035,324.0879789590035,1,0.769876332997228,325.13865174999955,,,,,,,,,,,992,2022-11-28_09h40.15.205,recognition,2022.2.4,59.90002697498228,
3.1750354808590098,238.319327731092,70.3865546218487,singletons,182.008403361345,maps/google_map_1.png,None,objects/1/1_134.jpg,0.0,outdoors,TowerEiffel.jpg,old,0,30,30,30,0,0,0,0,,,,,,,,,,,,,,,,,328.52222074999736,325.387991167001,325.387991167001,325.387991167001,325.387991167001,325.387991167001,left,1.1840020419986104,326.8544085419999,326.8544085419999,326.8544085419999,326.8544085419999,326.8544085419999,326.8544085419999,326.8544085419999,326.8544085419999,326.8544085419999,6,1.6491831250023097,328.9875963750019,328.9875963750019,328.9875963750019,328.9875963750019,220.0,['return'],[2.152354333004041],,,,,992,2022-11-28_09h40.15.205,recognition,2022.2.4,59.90002697498228,
3.1750354808590098,238.319327731092,70.3865546218487,singletons,182.008403361345,maps/google_map_1.png,None,objects/1/1_134.jpg,0.0,outdoors,TowerEiffel.jpg,old,0,30,30,30,,,,,,,,,,,,,,,,,,,,,,,,,,,,,,,,,,,,,,,,,,,,,,,,,,,992,2022-11-28_09h40.15.205,recognition,2022.2.4,59.90002697498228,
2.2555394032633997,71.8991596638655,251.89915966386602,high,129.298437129749,maps/google_map_1.png,147.399277465884,objects/1/1_93.jpg,0.0,outdoors,Bird_Toucan.jpg,old,0,31,31,31,0,0,0,0,,,,,,,,,,,,,,,,,335.4048927920012,331.4069893749984,331.4069893749984,331.4069893749984,331.4069893749984,331.4069893749984,left,2.029576165994513,333.7207314999978,333.7207314999978,333.7207314999978,333.7207314999978,333.7207314999978,333.7207314999978,333.7207314999978,333.7207314999978,333.7207314999978,6,1.6676301659972523,335.8724147500034,335.8724147500034,335.8724147500034,335.8724147500034,141.0,['return'],[4.455111249997572],,,,,992,2022-11-28_09h40.15.205,recognition,2022.2.4,59.90002697498228,
2.2555394032633997,71.8991596638655,251.89915966386602,high,129.298437129749,maps/google_map_1.png,147.399277465884,objects/1/1_93.jpg,0.0,outdoors,Bird_Toucan.jpg,old,0,31,31,31,,,,,,,,,,,,,,,,,,,,,,,,,,,,,,,,,,,,,,,,,,,,,,,,,,,992,2022-11-28_09h40.15.205,recognition,2022.2.4,59.90002697498228,
None,None,None,None,None,maps/google_map_1.png,None,objects/2/2_10.jpg,None,outdoors,TrapAnimal.jpg,new,0,32,32,32,,,,,,,,,,,,,,,,,,,,,346.0728165420005,340.58831604199804,340.58831604199804,340.58831604199804,340.58831604199804,340.58831604199804,right,1.877712123998208,342.7706203339985,342.7706203339985,342.7706203339985,342.7706203339985,342.7706203339985,342.7706203339985,342.7706203339985,342.7706203339985,342.7706203339985,1,3.273456457995053,346.32184016700194,,,,,,,,,,,992,2022-11-28_09h40.15.205,recognition,2022.2.4,59.90002697498228,
None,None,None,None,None,maps/google_map_1.png,None,objects/2/2_135.jpg,None,outdoors,Toy_Slide.jpg,new,0,33,33,33,,,,,,,,,,,,,,,,,,,,,349.43821066700184,346.5716943340012,346.5716943340012,346.5716943340012,346.5716943340012,346.5716943340012,right,1.6556680829962716,348.5224034999992,348.5224034999992,348.5224034999992,348.5224034999992,348.5224034999992,348.5224034999992,348.5224034999992,348.5224034999992,348.5224034999992,1,0.8915272499943967,349.689046917003,,,,,,,,,,,992,2022-11-28_09h40.15.205,recognition,2022.2.4,59.90002697498228,
1.1046566948971699,148.319327731092,328.319327731092,low,63.3242691342329,maps/google_map_1.png,5.0049414031405,objects/1/1_54.jpg,0.0,outdoors,LeafBlower.jpg,old,0,34,34,34,0,0,0,0,,,,,,,,,,,,,,,,,359.18933879199903,349.9379028750045,349.9379028750045,349.9379028750045,349.9379028750045,349.9379028750045,left,6.333806207992893,356.5524877920034,356.5524877920034,356.5524877920034,356.5524877920034,356.5524877920034,356.5524877920034,356.5524877920034,356.5524877920034,356.5524877920034,5,2.613310790999094,356.5524877920034,359.6546277919988,359.6546277919988,359.6546277919988,199.5,['return'],[4.645491542003583],,,,,992,2022-11-28_09h40.15.205,recognition,2022.2.4,59.90002697498228,
1.1046566948971699,148.319327731092,328.319327731092,low,63.3242691342329,maps/google_map_1.png,5.0049414031405,objects/1/1_54.jpg,0.0,outdoors,LeafBlower.jpg,old,0,34,34,34,,,,,,,,,,,,,,,,,,,,,,,,,,,,,,,,,,,,,,,,,,,,,,,,,,,992,2022-11-28_09h40.15.205,recognition,2022.2.4,59.90002697498228,
5.80886038773308,71.8991596638655,251.89915966386602,low,332.99199674903,maps/google_map_1.png,8.907162914835391,objects/1/1_29.jpg,0.0,outdoors,WateringCan_Antique.jpg,old,0,35,35,35,0,0,0,0,,,,,,,,,,,,,,,,,370.0060140420028,364.5740311670015,364.5740311670015,364.5740311670015,364.5740311670015,364.5740311670015,left,2.319478999997955,367.19112300000415,367.19112300000415,367.19112300000415,367.19112300000415,367.19112300000415,367.19112300000415,367.19112300000415,367.19112300000415,367.19112300000415,6,2.792334165991633,370.47792462500365,370.47792462500365,370.47792462500365,370.47792462500365,137.5,['return'],[7.951252416001807],,,,,992,2022-11-28_09h40.15.205,recognition,2022.2.4,59.90002697498228,
5.80886038773308,71.8991596638655,251.89915966386602,low,332.99199674903,maps/google_map_1.png,8.907162914835391,objects/1/1_29.jpg,0.0,outdoors,WateringCan_Antique.jpg,old,0,35,35,35,,,,,,,,,,,,,,,,,,,,,,,,,,,,,,,,,,,,,,,,,,,,,,,,,,,992,2022-11-28_09h40.15.205,recognition,2022.2.4,59.90002697498228,
None,None,None,None,None,maps/google_map_1.png,None,objects/2/2_23.jpg,None,indoors,KitchenCloth.jpg,new,0,36,36,36,,,,,,,,,,,,,,,,,,,,,382.17291045899765,378.6892587090042,378.6892587090042,378.6892587090042,378.6892587090042,378.6892587090042,right,2.048197373995208,381.0228836250026,381.0228836250026,381.0228836250026,381.0228836250026,381.0228836250026,381.0228836250026,381.0228836250026,381.0228836250026,381.0228836250026,1,1.1327817909987061,382.42302604200086,,,,,,,,,,,992,2022-11-28_09h40.15.205,recognition,2022.2.4,59.90002697498228,
None,None,None,None,None,maps/google_map_1.png,None,objects/2/2_76.jpg,None,outdoors,Fence_Wooden.jpg,new,0,37,37,37,,,,,,,,,,,,,,,,,,,,,384.6893696670013,382.6724543750024,382.6724543750024,382.6724543750024,382.6724543750024,382.6724543750024,right,1.0702041659969836,384.03844258400204,384.03844258400204,384.03844258400204,384.03844258400204,384.03844258400204,384.03844258400204,384.03844258400204,384.03844258400204,384.03844258400204,1,0.6220823739931802,384.9392946250009,,,,,,,,,,,992,2022-11-28_09h40.15.205,recognition,2022.2.4,59.90002697498228,
None,None,None,None,None,maps/google_map_1.png,None,objects/2/2_130.jpg,None,indoors,Monitor.jpg,new,0,38,38,38,,,,,,,,,,,,,,,,,,,,,387.00602345899824,385.18903724999836,385.18903724999836,385.18903724999836,385.18903724999836,385.18903724999836,right,0.9733383330021752,386.4544277919995,386.4544277919995,386.4544277919995,386.4544277919995,386.4544277919995,386.4544277919995,386.4544277919995,386.4544277919995,386.4544277919995,1,0.5342665829957696,387.2564624170045,,,,,,,,,,,992,2022-11-28_09h40.15.205,recognition,2022.2.4,59.90002697498228,
4.59030204690321,148.319327731092,328.319327731092,high,263.13833389891005,maps/google_map_1.png,155.180993832182,objects/1/1_10.jpg,0.0,indoors,Playdoh.jpg,old,0,39,39,39,0,0,0,0,,,,,,,,,,,,,,,,,446.24027641700377,387.5064587500019,387.5064587500019,387.5064587500019,387.5064587500019,387.5064587500019,left,51.71821024900419,439.52498637499957,439.52498637499957,439.52498637499957,439.52498637499957,439.52498637499957,439.52498637499957,439.52498637499957,439.52498637499957,439.52498637499957,5,6.698373291997996,446.70401654200396,446.70401654200396,446.70401654200396,446.70401654200396,36.0,['return'],[3.6586127079935977],,,,,992,2022-11-28_09h40.15.205,recognition,2022.2.4,59.90002697498228,
4.59030204690321,148.319327731092,328.319327731092,high,263.13833389891005,maps/google_map_1.png,155.180993832182,objects/1/1_10.jpg,0.0,indoors,Playdoh.jpg,old,0,39,39,39,,,,,,,,,,,,,,,,,,,,,,,,,,,,,,,,,,,,,,,,,,,,,,,,,,,992,2022-11-28_09h40.15.205,recognition,2022.2.4,59.90002697498228,
0.63243641477725,148.319327731092,328.319327731092,low,36.2543167706704,maps/google_map_1.png,22.065010960422,objects/1/1_30.jpg,0.0,outdoors,Boat_Ferry.jpg,old,0,40,40,40,0,0,0,0,,,,,,,,,,,,,,,,,453.9896400420039,450.6253032090026,450.6253032090026,450.6253032090026,450.6253032090026,450.6253032090026,left,1.5208384990037302,452.4409104170045,452.4409104170045,452.4409104170045,452.4409104170045,452.4409104170045,452.4409104170045,452.4409104170045,452.4409104170045,452.4409104170045,6,1.5231331659961143,454.45327525000175,454.45327525000175,454.45327525000175,454.45327525000175,34.5,['return'],[3.4133568329925765],,,,,992,2022-11-28_09h40.15.205,recognition,2022.2.4,59.90002697498228,
0.63243641477725,148.319327731092,328.319327731092,low,36.2543167706704,maps/google_map_1.png,22.065010960422,objects/1/1_30.jpg,0.0,outdoors,Boat_Ferry.jpg,old,0,40,40,40,,,,,,,,,,,,,,,,,,,,,,,,,,,,,,,,,,,,,,,,,,,,,,,,,,,992,2022-11-28_09h40.15.205,recognition,2022.2.4,59.90002697498228,
1.56623002974933,148.319327731092,328.319327731092,low,89.7838870556942,maps/google_map_1.png,31.464559324601804,objects/1/1_58.jpg,0.0,indoors,Candle_ChristmasDecor.jpg,old,0,41,41,41,0,0,0,0,,,,,,,,,,,,,,,,,462.45715491699957,458.1407264169975,458.1407264169975,458.1407264169975,458.1407264169975,458.1407264169975,left,2.4623389580010553,460.8910423749985,460.8910423749985,460.8910423749985,460.8910423749985,460.8910423749985,460.8910423749985,460.8910423749985,460.8910423749985,460.8910423749985,6,1.5482245829989552,462.9193860000014,462.9193860000014,462.9193860000014,462.9193860000014,115.5,['return'],[3.027435083000455],,,,,992,2022-11-28_09h40.15.205,recognition,2022.2.4,59.90002697498228,
1.56623002974933,148.319327731092,328.319327731092,low,89.7838870556942,maps/google_map_1.png,31.464559324601804,objects/1/1_58.jpg,0.0,indoors,Candle_ChristmasDecor.jpg,old,0,41,41,41,,,,,,,,,,,,,,,,,,,,,,,,,,,,,,,,,,,,,,,,,,,,,,,,,,,992,2022-11-28_09h40.15.205,recognition,2022.2.4,59.90002697498228,
4.73222760742324,148.319327731092,328.319327731092,high,271.27419405611,maps/google_map_1.png,147.045133674983,objects/1/1_37.jpg,0.0,indoors,Cassette_Audio.jpg,old,0,42,42,42,0,0,0,0,,,,,,,,,,,,,,,,,470.1743600839982,466.20806674999767,466.20806674999767,466.20806674999767,466.20806674999767,466.20806674999767,left,2.05814191600075,468.5563422499981,468.5563422499981,468.5563422499981,468.5563422499981,468.5563422499981,468.5563422499981,468.5563422499981,468.5563422499981,468.5563422499981,6,1.5988220829967759,470.63663904200075,470.63663904200075,470.63663904200075,470.63663904200075,236.5,['return'],[7.255417332999059],,,,,992,2022-11-28_09h40.15.205,recognition,2022.2.4,59.90002697498228,
4.73222760742324,148.319327731092,328.319327731092,high,271.27419405611,maps/google_map_1.png,147.045133674983,objects/1/1_37.jpg,0.0,indoors,Cassette_Audio.jpg,old,0,42,42,42,,,,,,,,,,,,,,,,,,,,,,,,,,,,,,,,,,,,,,,,,,,,,,,,,,,992,2022-11-28_09h40.15.205,recognition,2022.2.4,59.90002697498228,
None,None,None,None,None,maps/google_map_1.png,None,objects/2/2_40.jpg,None,indoors,Toy_Boat.jpg,new,0,43,43,43,,,,,,,,,,,,,,,,,,,,,480.9906740000006,478.1581001250015,478.1581001250015,478.1581001250015,478.1581001250015,478.1581001250015,right,1.5861295829963638,480.0413968749999,480.0413968749999,480.0413968749999,480.0413968749999,480.0413968749999,480.0413968749999,480.0413968749999,480.0413968749999,480.0413968749999,1,0.9313045000017155,481.24111387500307,,,,,,,,,,,992,2022-11-28_09h40.15.205,recognition,2022.2.4,59.90002697498228,
4.9420248096043204,148.319327731092,328.319327731092,high,283.300785263942,maps/google_map_1.png,135.01854246715098,objects/1/1_1.jpg,0.0,indoors,Mat_Door.jpg,old,0,44,44,44,0,0,0,0,,,,,,,,,,,,,,,,,484.5245122920023,481.490599417004,481.490599417004,481.490599417004,481.490599417004,481.490599417004,left,1.6335259170009522,483.42463362499984,483.42463362499984,483.42463362499984,483.42463362499984,483.42463362499984,483.42463362499984,483.42463362499984,483.42463362499984,483.42463362499984,6,1.0670820829982404,484.98548533400026,484.98548533400026,484.98548533400026,484.98548533400026,318.0,['return'],[4.354310915994574],,,,,992,2022-11-28_09h40.15.205,recognition,2022.2.4,59.90002697498228,
4.9420248096043204,148.319327731092,328.319327731092,high,283.300785263942,maps/google_map_1.png,135.01854246715098,objects/1/1_1.jpg,0.0,indoors,Mat_Door.jpg,old,0,44,44,44,,,,,,,,,,,,,,,,,,,,,,,,,,,,,,,,,,,,,,,,,,,,,,,,,,,992,2022-11-28_09h40.15.205,recognition,2022.2.4,59.90002697498228,
1.90628257275586,148.319327731092,328.319327731092,medium,109.277344935049,maps/google_map_1.png,50.9580172039569,objects/1/1_103.jpg,0.0,outdoors,Door_Green.jpg,old,0,45,45,45,0,0,0,0,,,,,,,,,,,,,,,,,492.70823820900114,489.60937833400385,489.60937833400385,489.60937833400385,489.60937833400385,489.60937833400385,left,1.646335999997973,491.5401397090027,491.5401397090027,491.5401397090027,491.5401397090027,491.5401397090027,491.5401397090027,491.5401397090027,491.5401397090027,491.5401397090027,6,1.1389798749951296,491.5401397090027,493.16936954200355,493.16936954200355,493.16936954200355,119.5,['return'],[3.74604541699955],,,,,992,2022-11-28_09h40.15.205,recognition,2022.2.4,59.90002697498228,
1.90628257275586,148.319327731092,328.319327731092,medium,109.277344935049,maps/google_map_1.png,50.9580172039569,objects/1/1_103.jpg,0.0,outdoors,Door_Green.jpg,old,0,45,45,45,,,,,,,,,,,,,,,,,,,,,,,,,,,,,,,,,,,,,,,,,,,,,,,,,,,992,2022-11-28_09h40.15.205,recognition,2022.2.4,59.90002697498228,
2.7836651042047103,71.8991596638655,251.89915966386602,high,159.57315883976102,maps/google_map_1.png,177.673999175895,objects/1/1_47.jpg,0.0,outdoors,Caribou.jpg,old,0,46,46,46,0,0,0,0,,,,,,,,,,,,,,,,,500.8914389999991,497.1758179169992,497.1758179169992,497.1758179169992,497.1758179169992,497.1758179169992,left,2.0989659580009175,499.55795025000407,499.55795025000407,499.55795025000407,499.55795025000407,499.55795025000407,499.55795025000407,499.55795025000407,499.55795025000407,499.55795025000407,6,1.3024352919965168,501.3535809169989,501.3535809169989,501.3535809169989,501.3535809169989,179.5,['return'],[2.9049720830007573],,,,,992,2022-11-28_09h40.15.205,recognition,2022.2.4,59.90002697498228,
2.7836651042047103,71.8991596638655,251.89915966386602,high,159.57315883976102,maps/google_map_1.png,177.673999175895,objects/1/1_47.jpg,0.0,outdoors,Caribou.jpg,old,0,46,46,46,,,,,,,,,,,,,,,,,,,,,,,,,,,,,,,,,,,,,,,,,,,,,,,,,,,992,2022-11-28_09h40.15.205,recognition,2022.2.4,59.90002697498228,
1.2067722618552401,148.319327731092,328.319327731092,low,69.1780277496632,maps/google_map_1.png,10.8587000185708,objects/1/1_24.jpg,0.0,indoors,Box_FirstAid.jpg,old,0,47,47,47,0,0,0,0,,,,,,,,,,,,,,,,,507.4077858340024,504.52458487499825,504.52458487499825,504.52458487499825,504.52458487499825,504.52458487499825,left,1.2699369170004502,506.0895141670044,506.0895141670044,506.0895141670044,506.0895141670044,506.0895141670044,506.0895141670044,506.0895141670044,506.0895141670044,506.0895141670044,6,1.294888832999277,507.87643445900176,507.87643445900176,507.87643445900176,507.87643445900176,132.0,['return'],[2.7315759579942096],,,,,992,2022-11-28_09h40.15.205,recognition,2022.2.4,59.90002697498228,
1.2067722618552401,148.319327731092,328.319327731092,low,69.1780277496632,maps/google_map_1.png,10.8587000185708,objects/1/1_24.jpg,0.0,indoors,Box_FirstAid.jpg,old,0,47,47,47,,,,,,,,,,,,,,,,,,,,,,,,,,,,,,,,,,,,,,,,,,,,,,,,,,,992,2022-11-28_09h40.15.205,recognition,2022.2.4,59.90002697498228,
0.48605298537194497,71.8991596638655,251.89915966386602,medium,27.862909989474502,maps/google_map_1.png,45.963750325609,objects/1/1_39.jpg,0.0,outdoors,SpiderWeb.jpg,old,0,48,48,48,0,0,0,0,,,,,,,,,,,,,,,,,514.8575756670034,510.8762432500007,510.8762432500007,510.8762432500007,510.8762432500007,510.8762432500007,left,2.8849676250029006,514.0571410420016,514.0571410420016,514.0571410420016,514.0571410420016,514.0571410420016,514.0571410420016,514.0571410420016,514.0571410420016,514.0571410420016,6,0.7782654170005117,514.0571410420016,515.3205475420036,515.3205475420036,515.3205475420036,39.5,['return'],[2.7553370829991763],,,,,992,2022-11-28_09h40.15.205,recognition,2022.2.4,59.90002697498228,
0.48605298537194497,71.8991596638655,251.89915966386602,medium,27.862909989474502,maps/google_map_1.png,45.963750325609,objects/1/1_39.jpg,0.0,outdoors,SpiderWeb.jpg,old,0,48,48,48,,,,,,,,,,,,,,,,,,,,,,,,,,,,,,,,,,,,,,,,,,,,,,,,,,,992,2022-11-28_09h40.15.205,recognition,2022.2.4,59.90002697498228,
None,None,None,None,None,maps/google_map_1.png,None,objects/2/2_57.jpg,None,outdoors,Steeple.jpg,new,0,49,49,49,,,,,,,,,,,,,,,,,,,,,522.8577814590026,518.3418146250042,518.3418146250042,518.3418146250042,518.3418146250042,518.3418146250042,right,2.7029629159951583,521.3410977090025,521.3410977090025,521.3410977090025,521.3410977090025,521.3410977090025,521.3410977090025,521.3410977090025,521.3410977090025,521.3410977090025,1,1.5003344580036355,523.1084376670042,,,,,,,,,,,992,2022-11-28_09h40.15.205,recognition,2022.2.4,59.90002697498228,
None,None,None,None,None,maps/google_map_1.png,None,objects/2/2_29.jpg,None,indoors,Tape_Scotch.jpg,new,0,50,50,50,,,,,,,,,,,,,,,,,,,,,525.2584734999982,523.3577801249994,523.3577801249994,523.3577801249994,523.3577801249994,523.3577801249994,right,1.1177214999988792,524.7758915419981,524.7758915419981,524.7758915419981,524.7758915419981,524.7758915419981,524.7758915419981,524.7758915419981,524.7758915419981,524.7758915419981,1,0.456249167000351,524.7758915419981,,,,,,,,,,,992,2022-11-28_09h40.15.205,recognition,2022.2.4,59.90002697498228,
2.1438934625023203,71.8991596638655,251.89915966386602,high,122.898351353636,maps/google_map_1.png,140.999191689771,objects/1/1_7.jpg,0.0,outdoors,Hottub.jpg,old,0,51,51,51,0,0,0,0,,,,,,,,,,,,,,,,,528.791926083999,525.7587308750008,525.7587308750008,525.7587308750008,525.7587308750008,525.7587308750008,left,1.2650379160040757,527.3071041250005,527.3071041250005,527.3071041250005,527.3071041250005,527.3071041250005,527.3071041250005,527.3071041250005,527.3071041250005,527.3071041250005,6,1.4515678329989896,529.253815959004,529.253815959004,529.253815959004,529.253815959004,150.0,['return'],[4.982766000000993],,,,,992,2022-11-28_09h40.15.205,recognition,2022.2.4,59.90002697498228,
2.1438934625023203,71.8991596638655,251.89915966386602,high,122.898351353636,maps/google_map_1.png,140.999191689771,objects/1/1_7.jpg,0.0,outdoors,Hottub.jpg,old,0,51,51,51,,,,,,,,,,,,,,,,,,,,,,,,,,,,,,,,,,,,,,,,,,,,,,,,,,,992,2022-11-28_09h40.15.205,recognition,2022.2.4,59.90002697498228,
2.96452941176471,58.3193277310925,139.773109243697,singletons,169.941176470588,maps/google_map_1.png,None,objects/1/1_94.jpg,0.0,indoors,Toy_BlocksLetter.jpg,old,0,52,52,52,0,0,0,0,,,,,,,,,,,,,,,,,536.9080838340014,534.5097725000014,534.5097725000014,534.5097725000014,534.5097725000014,534.5097725000014,left,1.4973490409975057,536.2919312500017,536.2919312500017,536.2919312500017,536.2919312500017,536.2919312500017,536.2919312500017,536.2919312500017,536.2919312500017,536.2919312500017,6,0.5882547919973149,537.3712247919975,537.3712247919975,537.3712247919975,537.3712247919975,233.0,['return'],[3.2069008329999633],,,,,992,2022-11-28_09h40.15.205,recognition,2022.2.4,59.90002697498228,
2.96452941176471,58.3193277310925,139.773109243697,singletons,169.941176470588,maps/google_map_1.png,None,objects/1/1_94.jpg,0.0,indoors,Toy_BlocksLetter.jpg,old,0,52,52,52,,,,,,,,,,,,,,,,,,,,,,,,,,,,,,,,,,,,,,,,,,,,,,,,,,,992,2022-11-28_09h40.15.205,recognition,2022.2.4,59.90002697498228,
6.06383294252329,71.8991596638655,251.89915966386602,low,347.608257851653,maps/google_map_1.png,5.7090981877878795,objects/1/1_104.jpg,0.0,indoors,Pitcher.jpg,old,0,53,53,53,0,0,0,0,,,,,,,,,,,,,,,,,543.8252326250004,540.8437021670034,540.8437021670034,540.8437021670034,540.8437021670034,540.8437021670034,left,1.2991136240016203,542.443028583999,542.443028583999,542.443028583999,542.443028583999,542.443028583999,542.443028583999,542.443028583999,542.443028583999,542.443028583999,6,1.3500162079944857,544.2864857919994,544.2864857919994,544.2864857919994,544.2864857919994,22.0,['return'],[2.848672332998831],,,,,992,2022-11-28_09h40.15.205,recognition,2022.2.4,59.90002697498228,
6.06383294252329,71.8991596638655,251.89915966386602,low,347.608257851653,maps/google_map_1.png,5.7090981877878795,objects/1/1_104.jpg,0.0,indoors,Pitcher.jpg,old,0,53,53,53,,,,,,,,,,,,,,,,,,,,,,,,,,,,,,,,,,,,,,,,,,,,,,,,,,,992,2022-11-28_09h40.15.205,recognition,2022.2.4,59.90002697498228,
3.74303809754345,148.319327731092,328.319327731092,high,214.569062916503,maps/google_map_1.png,156.249735185411,objects/1/1_16.jpg,0.0,indoors,Mask_Ski.jpg,old,0,54,54,54,0,0,0,0,,,,,,,,,,,,,,,,,555.3251521249986,547.4095268750025,547.4095268750025,547.4095268750025,547.4095268750025,547.4095268750025,left,5.949059332997422,553.6429840420024,553.6429840420024,553.6429840420024,553.6429840420024,553.6429840420024,553.6429840420024,553.6429840420024,553.6429840420024,553.6429840420024,6,1.6556541239988292,555.7887248339975,555.7887248339975,555.7887248339975,555.7887248339975,224.5,['return'],[2.744857874997251],,,,,992,2022-11-28_09h40.15.205,recognition,2022.2.4,59.90002697498228,
3.74303809754345,148.319327731092,328.319327731092,high,214.569062916503,maps/google_map_1.png,156.249735185411,objects/1/1_16.jpg,0.0,indoors,Mask_Ski.jpg,old,0,54,54,54,,,,,,,,,,,,,,,,,,,,,,,,,,,,,,,,,,,,,,,,,,,,,,,,,,,992,2022-11-28_09h40.15.205,recognition,2022.2.4,59.90002697498228,
None,None,None,None,None,maps/google_map_1.png,None,objects/2/2_110.jpg,None,indoors,Flute_Wooden.jpg,new,0,55,55,55,,,,,,,,,,,,,,,,,,,,,562.9092222090039,558.7921104170018,558.7921104170018,558.7921104170018,558.7921104170018,558.7921104170018,right,2.7080737079959363,561.7923158339981,561.7923158339981,561.7923158339981,561.7923158339981,561.7923158339981,561.7923158339981,561.7923158339981,561.7923158339981,561.7923158339981,1,1.0907586659959634,563.1588876669994,,,,,,,,,,,992,2022-11-28_09h40.15.205,recognition,2022.2.4,59.90002697498228,
5.99860062387725,71.8991596638655,251.89915966386602,low,343.86882557258104,maps/google_map_1.png,1.96966590871582,objects/1/1_13.jpg,0.0,indoors,Bagel.jpg,old,0,56,56,56,0,0,0,0,,,,,,,,,,,,,,,,,566.5595742919977,563.4101730420007,563.4101730420007,563.4101730420007,563.4101730420007,563.4101730420007,left,2.065736165997805,565.7591964169987,565.7591964169987,565.7591964169987,565.7591964169987,565.7591964169987,565.7591964169987,565.7591964169987,565.7591964169987,565.7591964169987,6,0.7813532080035657,567.0223840840044,567.0223840840044,567.0223840840044,567.0223840840044,303.0,['return'],[5.734984499998973],,,,,992,2022-11-28_09h40.15.205,recognition,2022.2.4,59.90002697498228,
5.99860062387725,71.8991596638655,251.89915966386602,low,343.86882557258104,maps/google_map_1.png,1.96966590871582,objects/1/1_13.jpg,0.0,indoors,Bagel.jpg,old,0,56,56,56,,,,,,,,,,,,,,,,,,,,,,,,,,,,,,,,,,,,,,,,,,,,,,,,,,,992,2022-11-28_09h40.15.205,recognition,2022.2.4,59.90002697498228,
None,None,None,None,None,maps/google_map_1.png,None,objects/2/2_136.jpg,None,outdoors,WaterWell.jpg,new,0,57,57,57,,,,,,,,,,,,,,,,,,,,,576.2081284169981,573.0283514999974,573.0283514999974,573.0283514999974,573.0283514999974,573.0283514999974,right,1.2822712909983238,574.6080601249996,574.6080601249996,574.6080601249996,574.6080601249996,574.6080601249996,574.6080601249996,574.6080601249996,574.6080601249996,574.6080601249996,1,1.5841527500015218,576.4592790419993,,,,,,,,,,,992,2022-11-28_09h40.15.205,recognition,2022.2.4,59.90002697498228,
None,None,None,None,None,maps/google_map_1.png,None,objects/2/2_43.jpg,None,outdoors,Butterfly.jpg,new,0,58,58,58,,,,,,,,,,,,,,,,,,,,,579.9916903749981,576.7084620419992,576.7084620419992,576.7084620419992,576.7084620419992,576.7084620419992,right,2.348530582996318,579.3417927499977,579.3417927499977,579.3417927499977,579.3417927499977,579.3417927499977,579.3417927499977,579.3417927499977,579.3417927499977,579.3417927499977,1,0.6291414160004933,580.2424013749987,,,,,,,,,,,992,2022-11-28_09h40.15.205,recognition,2022.2.4,59.90002697498228,
1.49098692810458,161.89915966386602,172.95798319327702,singletons,85.47058823529409,maps/google_map_1.png,None,objects/1/1_40.jpg,0.0,outdoors,Dog_SaintBernard.jpg,old,0,59,59,59,0,0,0,0,,,,,,,,,,,,,,,,,583.0262836670008,580.4947006670045,580.4947006670045,580.4947006670045,580.4947006670045,580.4947006670045,left,0.8311967499976163,581.6107116249987,581.6107116249987,581.6107116249987,581.6107116249987,581.6107116249987,581.6107116249987,581.6107116249987,581.6107116249987,581.6107116249987,6,1.3866812919950462,581.6107116249987,583.4926744999975,583.4926744999975,583.4926744999975,169.0,['return'],[5.832482750003692],,,,,992,2022-11-28_09h40.15.205,recognition,2022.2.4,59.90002697498228,
1.49098692810458,161.89915966386602,172.95798319327702,singletons,85.47058823529409,maps/google_map_1.png,None,objects/1/1_40.jpg,0.0,outdoors,Dog_SaintBernard.jpg,old,0,59,59,59,,,,,,,,,,,,,,,,,,,,,,,,,,,,,,,,,,,,,,,,,,,,,,,,,,,992,2022-11-28_09h40.15.205,recognition,2022.2.4,59.90002697498228,
2.4140503084802,148.319327731092,328.319327731092,medium,138.385049530712,maps/google_map_1.png,80.06572179961951,objects/1/1_46.jpg,0.0,outdoors,SiloGrain.jpg,old,0,60,60,60,0,0,0,0,,,,,,,,,,,,,,,,,595.2420955420021,589.5933211250012,589.5933211250012,589.5933211250012,589.5933211250012,589.5933211250012,left,2.048061832996609,591.9241708749978,591.9241708749978,591.9241708749978,591.9241708749978,591.9241708749978,591.9241708749978,591.9241708749978,591.9241708749978,591.9241708749978,6,3.2912282909965143,595.7029059170018,595.7029059170018,595.7029059170018,595.7029059170018,225.0,['return'],[3.614769249994424],,,,,992,2022-11-28_09h40.15.205,recognition,2022.2.4,59.90002697498228,
2.4140503084802,148.319327731092,328.319327731092,medium,138.385049530712,maps/google_map_1.png,80.06572179961951,objects/1/1_46.jpg,0.0,outdoors,SiloGrain.jpg,old,0,60,60,60,,,,,,,,,,,,,,,,,,,,,,,,,,,,,,,,,,,,,,,,,,,,,,,,,,,992,2022-11-28_09h40.15.205,recognition,2022.2.4,59.90002697498228,
None,None,None,None,None,maps/google_map_1.png,None,objects/2/2_16.jpg,None,indoors,Hockey_Puck.jpg,new,0,61,61,61,,,,,,,,,,,,,,,,,,,,,602.4922265839996,599.5774631669992,599.5774631669992,599.5774631669992,599.5774631669992,599.5774631669992,right,1.1485972500013304,601.0253818339988,601.0253818339988,601.0253818339988,601.0253818339988,601.0253818339988,601.0253818339988,601.0253818339988,601.0253818339988,601.0253818339988,1,1.4428836239967495,602.7427317090041,,,,,,,,,,,992,2022-11-28_09h40.15.205,recognition,2022.2.4,59.90002697498228,
5.477868705184551,71.8991596638655,251.89915966386602,low,314.017951252617,maps/google_map_1.png,27.881208411248103,objects/1/1_128.jpg,0.0,outdoors,DogHouse.jpg,old,0,62,62,62,0,0,0,0,,,,,,,,,,,,,,,,,607.4097727499975,602.9922718750022,602.9922718750022,602.9922718750022,602.9922718750022,602.9922718750022,left,1.4557436670002062,604.7430702499987,604.7430702499987,604.7430702499987,604.7430702499987,604.7430702499987,604.7430702499987,604.7430702499987,604.7430702499987,604.7430702499987,6,2.6403507080030977,607.8750044999979,607.8750044999979,607.8750044999979,607.8750044999979,135.5,['return'],[2.292351999996754],,,,,992,2022-11-28_09h40.15.205,recognition,2022.2.4,59.90002697498228,
5.477868705184551,71.8991596638655,251.89915966386602,low,314.017951252617,maps/google_map_1.png,27.881208411248103,objects/1/1_128.jpg,0.0,outdoors,DogHouse.jpg,old,0,62,62,62,,,,,,,,,,,,,,,,,,,,,,,,,,,,,,,,,,,,,,,,,,,,,,,,,,,992,2022-11-28_09h40.15.205,recognition,2022.2.4,59.90002697498228,
None,None,None,None,None,maps/google_map_1.png,None,objects/2/2_116.jpg,None,outdoors,House_Rural.jpg,new,0,63,63,63,,,,,,,,,,,,,,,,,,,,,613.5091312919976,610.4275537089998,610.4275537089998,610.4275537089998,610.4275537089998,610.4275537089998,right,1.2710801249922952,611.9942707500013,611.9942707500013,611.9942707500013,611.9942707500013,611.9942707500013,611.9942707500013,611.9942707500013,611.9942707500013,611.9942707500013,1,1.4986258749995613,613.7595942499975,,,,,,,,,,,992,2022-11-28_09h40.15.205,recognition,2022.2.4,59.90002697498228,
3.1515995895619704,71.8991596638655,251.89915966386602,high,180.664944624571,maps/google_map_1.png,161.23421503929399,objects/1/1_72.jpg,0.0,indoors,Hat_Party.jpg,old,0,64,64,64,0,0,0,0,,,,,,,,,,,,,,,,,616.7088267920044,614.0102775420019,614.0102775420019,614.0102775420019,614.0102775420019,614.0102775420019,left,1.3213953750018845,615.6255875420029,615.6255875420029,615.6255875420029,615.6255875420029,615.6255875420029,615.6255875420029,615.6255875420029,615.6255875420029,615.6255875420029,6,1.0672495409962721,617.1744942090008,617.1744942090008,617.1744942090008,617.1744942090008,225.0,['return'],[2.7108785410018754],,,,,992,2022-11-28_09h40.15.205,recognition,2022.2.4,59.90002697498228,
3.1515995895619704,71.8991596638655,251.89915966386602,high,180.664944624571,maps/google_map_1.png,161.23421503929399,objects/1/1_72.jpg,0.0,indoors,Hat_Party.jpg,old,0,64,64,64,,,,,,,,,,,,,,,,,,,,,,,,,,,,,,,,,,,,,,,,,,,,,,,,,,,992,2022-11-28_09h40.15.205,recognition,2022.2.4,59.90002697498228,
1.0210732700788,148.319327731092,328.319327731092,low,58.532862615982,maps/google_map_1.png,0.213534884889627,objects/1/1_43.jpg,0.0,indoors,Printer.jpg,old,0,65,65,65,0,0,0,0,,,,,,,,,,,,,,,,,629.8434402089988,620.1431454999984,620.1431454999984,620.1431454999984,620.1431454999984,620.1431454999984,left,2.2782358739932533,622.7083193750004,622.7083193750004,622.7083193750004,622.7083193750004,622.7083193750004,622.7083193750004,622.7083193750004,622.7083193750004,622.7083193750004,6,7.102328041000874,630.3068683340025,630.3068683340025,630.3068683340025,630.3068683340025,25.5,['return'],[4.477171291000559],,,,,992,2022-11-28_09h40.15.205,recognition,2022.2.4,59.90002697498228,
1.0210732700788,148.319327731092,328.319327731092,low,58.532862615982,maps/google_map_1.png,0.213534884889627,objects/1/1_43.jpg,0.0,indoors,Printer.jpg,old,0,65,65,65,,,,,,,,,,,,,,,,,,,,,,,,,,,,,,,,,,,,,,,,,,,,,,,,,,,992,2022-11-28_09h40.15.205,recognition,2022.2.4,59.90002697498228,
0.9304638738147909,148.319327731092,328.319327731092,low,53.3386934033957,maps/google_map_1.png,4.98063432769676,objects/1/1_141.jpg,0.0,outdoors,Caterpillar.jpg,old,0,66,66,66,0,0,0,0,,,,,,,,,,,,,,,,,639.5434999999998,635.043756375002,635.043756375002,635.043756375002,635.043756375002,635.043756375002,left,3.1471698329987703,638.4758441250015,638.4758441250015,638.4758441250015,638.4758441250015,638.4758441250015,638.4758441250015,638.4758441250015,638.4758441250015,638.4758441250015,6,1.0489865409981576,640.007370416999,640.007370416999,640.007370416999,640.007370416999,49.5,['return'],[3.323679458000697],,,,,992,2022-11-28_09h40.15.205,recognition,2022.2.4,59.90002697498228,
0.9304638738147909,148.319327731092,328.319327731092,low,53.3386934033957,maps/google_map_1.png,4.98063432769676,objects/1/1_141.jpg,0.0,outdoors,Caterpillar.jpg,old,0,66,66,66,,,,,,,,,,,,,,,,,,,,,,,,,,,,,,,,,,,,,,,,,,,,,,,,,,,992,2022-11-28_09h40.15.205,recognition,2022.2.4,59.90002697498228,
None,None,None,None,None,maps/google_map_1.png,None,objects/2/2_86.jpg,None,outdoors,GoldNugget.jpg,new,0,67,67,67,,,,,,,,,,,,,,,,,,,,,645.6267108340035,643.5943684169979,643.5943684169979,643.5943684169979,643.5943684169979,643.5943684169979,right,1.0533954169950448,644.9439855840028,644.9439855840028,644.9439855840028,644.9439855840028,644.9439855840028,644.9439855840028,644.9439855840028,644.9439855840028,644.9439855840028,1,0.6647913330016308,645.8768187090027,,,,,,,,,,,992,2022-11-28_09h40.15.205,recognition,2022.2.4,59.90002697498228,
None,None,None,None,None,maps/google_map_1.png,None,objects/2/2_19.jpg,None,outdoors,Goat.jpg,new,0,68,68,68,,,,,,,,,,,,,,,,,,,,,655.7263627089997,646.1265070419977,646.1265070419977,646.1265070419977,646.1265070419977,646.1265070419977,left,6.261773791004089,652.6749887500046,652.6749887500046,652.6749887500046,652.6749887500046,652.6749887500046,652.6749887500046,652.6749887500046,652.6749887500046,652.6749887500046,5,3.030216332997952,655.9770203750013,,,,,,,,,,,992,2022-11-28_09h40.15.205,recognition,2022.2.4,59.90002697498228,
3.20556994268232,148.319327731092,328.319327731092,medium,183.75878652319,maps/google_map_1.png,125.43945879209801,objects/1/1_62.jpg,0.0,outdoors,Seashell_AlternateTellin.jpg,old,0,69,69,69,0,0,0,0,,,,,,,,,,,,,,,,,661.8100254169985,656.2264596250025,656.2264596250025,656.2264596250025,656.2264596250025,656.2264596250025,left,3.509259833001124,660.0277027089978,660.0277027089978,660.0277027089978,660.0277027089978,660.0277027089978,660.0277027089978,660.0277027089978,660.0277027089978,660.0277027089978,6,1.7560307909952826,662.2752995420014,662.2752995420014,662.2752995420014,662.2752995420014,206.5,['return'],[3.899555208001402],,,,,992,2022-11-28_09h40.15.205,recognition,2022.2.4,59.90002697498228,
3.20556994268232,148.319327731092,328.319327731092,medium,183.75878652319,maps/google_map_1.png,125.43945879209801,objects/1/1_62.jpg,0.0,outdoors,Seashell_AlternateTellin.jpg,old,0,69,69,69,,,,,,,,,,,,,,,,,,,,,,,,,,,,,,,,,,,,,,,,,,,,,,,,,,,992,2022-11-28_09h40.15.205,recognition,2022.2.4,59.90002697498228,
None,None,None,None,None,maps/google_map_1.png,None,objects/2/2_35.jpg,None,indoors,Hotdog_Weiner.jpg,new,0,70,70,70,,,,,,,,,,,,,,,,,,,,,674.2097527919977,666.4447494170017,666.4447494170017,666.4447494170017,666.4447494170017,666.4447494170017,right,5.226327124997624,671.9581497090039,671.9581497090039,671.9581497090039,671.9581497090039,671.9581497090039,671.9581497090039,671.9581497090039,671.9581497090039,671.9581497090039,1,2.230936207997729,674.4608074999996,,,,,,,,,,,992,2022-11-28_09h40.15.205,recognition,2022.2.4,59.90002697498228,
None,None,None,None,None,maps/google_map_1.png,None,objects/2/2_88.jpg,None,indoors,Puzzle_Piece.jpg,new,0,71,71,71,,,,,,,,,,,,,,,,,,,,,676.6436884170034,674.7098725840042,674.7098725840042,674.7098725840042,674.7098725840042,674.7098725840042,right,1.1491770409920719,676.1428232500039,676.1428232500039,676.1428232500039,676.1428232500039,676.1428232500039,676.1428232500039,676.1428232500039,676.1428232500039,676.1428232500039,1,0.47285220800404204,676.8940604169984,,,,,,,,,,,992,2022-11-28_09h40.15.205,recognition,2022.2.4,59.90002697498228,
None,None,None,None,None,maps/google_map_1.png,None,objects/2/2_94.jpg,None,outdoors,Playground.jpg,new,0,72,72,72,,,,,,,,,,,,,,,,,,,,,679.5273519590046,677.1435399590046,677.1435399590046,677.1435399590046,677.1435399590046,677.1435399590046,right,1.4306194159944425,678.8608692499984,678.8608692499984,678.8608692499984,678.8608692499984,678.8608692499984,678.8608692499984,678.8608692499984,678.8608692499984,678.8608692499984,1,0.6429918329959037,679.7775422499981,,,,,,,,,,,992,2022-11-28_09h40.15.205,recognition,2022.2.4,59.90002697498228,
None,None,None,None,None,maps/google_map_1.png,None,objects/2/2_6.jpg,None,outdoors,Dragonfly.jpg,new,0,73,73,73,,,,,,,,,,,,,,,,,,,,,682.0271284170012,680.0267361250008,680.0267361250008,680.0267361250008,680.0267361250008,680.0267361250008,right,1.095230040999013,681.4099014590029,681.4099014590029,681.4099014590029,681.4099014590029,681.4099014590029,681.4099014590029,681.4099014590029,681.4099014590029,681.4099014590029,1,0.5993777080002474,682.2775332090023,,,,,,,,,,,992,2022-11-28_09h40.15.205,recognition,2022.2.4,59.90002697498228,
None,None,None,None,None,maps/google_map_1.png,None,objects/2/2_47.jpg,None,indoors,Handbag.jpg,new,0,74,74,74,,,,,,,,,,,,,,,,,,,,,684.7442918750021,682.5269554170009,682.5269554170009,682.5269554170009,682.5269554170009,682.5269554170009,right,1.3976019170004292,684.2097500840027,684.2097500840027,684.2097500840027,684.2097500840027,684.2097500840027,684.2097500840027,684.2097500840027,684.2097500840027,684.2097500840027,1,0.5131924579982297,684.9943774999992,,,,,,,,,,,992,2022-11-28_09h40.15.205,recognition,2022.2.4,59.90002697498228,
None,None,None,None,None,maps/google_map_1.png,None,objects/2/2_143.jpg,None,indoors,Heater_ElectricPortable.jpg,new,0,75,75,75,,,,,,,,,,,,,,,,,,,,,686.7609350420025,685.2442172500014,685.2442172500014,685.2442172500014,685.2442172500014,685.2442172500014,right,0.8138822499968228,686.3413278340013,686.3413278340013,686.3413278340013,686.3413278340013,686.3413278340013,686.3413278340013,686.3413278340013,686.3413278340013,686.3413278340013,1,0.39216287399904104,687.0107311250031,,,,,,,,,,,992,2022-11-28_09h40.15.205,recognition,2022.2.4,59.90002697498228,
None,None,None,None,None,maps/google_map_1.png,None,objects/2/2_44.jpg,None,outdoors,Bicycle_Kids.jpg,new,0,76,76,76,,,,,,,,,,,,,,,,,,,,,689.3612103749983,687.2603797499978,687.2603797499978,687.2603797499978,687.2603797499978,687.2603797499978,right,1.023085540997272,688.5756258340043,688.5756258340043,688.5756258340043,688.5756258340043,688.5756258340043,688.5756258340043,688.5756258340043,688.5756258340043,688.5756258340043,1,0.7579940829964471,689.6111141670044,,,,,,,,,,,992,2022-11-28_09h40.15.205,recognition,2022.2.4,59.90002697498228,
5.59613573700786,71.8991596638655,251.89915966386602,low,320.797590019559,maps/google_map_1.png,21.1015696443065,objects/1/1_48.jpg,0.0,outdoors,Toy_Lizard.jpg,old,0,77,77,77,0,0,0,0,,,,,,,,,,,,,,,,,703.2614065000016,689.8602406249993,689.8602406249993,689.8602406249993,689.8602406249993,689.8602406249993,left,5.627202750001743,695.7758900000044,695.7758900000044,695.7758900000044,695.7758900000044,695.7758900000044,695.7758900000044,695.7758900000044,695.7758900000044,695.7758900000044,6,7.4671213749970775,695.7758900000044,703.7404103340014,703.7404103340014,703.7404103340014,229.5,['return'],[2.6944662909954786],,,,,992,2022-11-28_09h40.15.205,recognition,2022.2.4,59.90002697498228,
5.59613573700786,71.8991596638655,251.89915966386602,low,320.797590019559,maps/google_map_1.png,21.1015696443065,objects/1/1_48.jpg,0.0,outdoors,Toy_Lizard.jpg,old,0,77,77,77,,,,,,,,,,,,,,,,,,,,,,,,,,,,,,,,,,,,,,,,,,,,,,,,,,,992,2022-11-28_09h40.15.205,recognition,2022.2.4,59.90002697498228,
None,None,None,None,None,maps/google_map_1.png,None,objects/2/2_46.jpg,None,outdoors,PlayerFootball.jpg,new,0,78,78,78,,,,,,,,,,,,,,,,,,,,,710.077791417003,706.6944987500028,706.6944987500028,706.6944987500028,706.6944987500028,706.6944987500028,right,1.8773008330026641,708.8582267919992,708.8582267919992,708.8582267919992,708.8582267919992,708.8582267919992,708.8582267919992,708.8582267919992,708.8582267919992,708.8582267919992,1,1.1875055830023484,710.3280783750015,,,,,,,,,,,992,2022-11-28_09h40.15.205,recognition,2022.2.4,59.90002697498228,
5.84035167694754,71.8991596638655,251.89915966386602,low,334.797229888712,maps/google_map_1.png,7.10192977515327,objects/1/1_106.jpg,0.0,indoors,PotatoMasher_Grate.jpg,old,0,79,79,79,0,0,0,0,,,,,,,,,,,,,,,,,716.9448414590006,710.5763502920017,710.5763502920017,710.5763502920017,710.5763502920017,710.5763502920017,left,3.4984264579979936,714.3591990839996,714.3591990839996,714.3591990839996,714.3591990839996,714.3591990839996,714.3591990839996,714.3591990839996,714.3591990839996,714.3591990839996,6,2.5534779580048053,717.4055312499986,717.4055312499986,717.4055312499986,717.4055312499986,246.0,['return'],[3.7161744170007296],,,,,992,2022-11-28_09h40.15.205,recognition,2022.2.4,59.90002697498228,
5.84035167694754,71.8991596638655,251.89915966386602,low,334.797229888712,maps/google_map_1.png,7.10192977515327,objects/1/1_106.jpg,0.0,indoors,PotatoMasher_Grate.jpg,old,0,79,79,79,,,,,,,,,,,,,,,,,,,,,,,,,,,,,,,,,,,,,,,,,,,,,,,,,,,992,2022-11-28_09h40.15.205,recognition,2022.2.4,59.90002697498228,
1.4472400673955,148.319327731092,328.319327731092,low,82.9628064112068,maps/google_map_1.png,24.643478680114303,objects/1/1_97.jpg,0.0,indoors,LetterMail.jpg,old,0,80,80,80,0,0,0,0,,,,,,,,,,,,,,,,,724.7445592919976,721.3950590840032,721.3950590840032,721.3950590840032,721.3950590840032,721.3950590840032,left,1.5096890829954646,723.1924525840004,723.1924525840004,723.1924525840004,723.1924525840004,723.1924525840004,723.1924525840004,723.1924525840004,723.1924525840004,723.1924525840004,6,1.5210275829958846,723.1924525840004,725.2069138750012,725.2069138750012,725.2069138750012,162.5,['return'],[1.9299252909986535],,,,,992,2022-11-28_09h40.15.205,recognition,2022.2.4,59.90002697498228,
1.4472400673955,148.319327731092,328.319327731092,low,82.9628064112068,maps/google_map_1.png,24.643478680114303,objects/1/1_97.jpg,0.0,indoors,LetterMail.jpg,old,0,80,80,80,,,,,,,,,,,,,,,,,,,,,,,,,,,,,,,,,,,,,,,,,,,,,,,,,,,992,2022-11-28_09h40.15.205,recognition,2022.2.4,59.90002697498228,
None,None,None,None,None,maps/google_map_1.png,None,objects/2/2_8.jpg,None,outdoors,Sign_OneWay.jpg,new,0,81,81,81,,,,,,,,,,,,,,,,,,,,,729.5450762500041,727.394901833999,727.394901833999,727.394901833999,727.394901833999,727.394901833999,right,1.2749817490039277,728.9597935839993,728.9597935839993,728.9597935839993,728.9597935839993,728.9597935839993,728.9597935839993,728.9597935839993,728.9597935839993,728.9597935839993,1,0.5561737909956719,729.7947140000033,,,,,,,,,,,992,2022-11-28_09h40.15.205,recognition,2022.2.4,59.90002697498228,
3.92754334511961,148.319327731092,328.319327731092,high,225.14579685399,maps/google_map_1.png,166.826469122898,objects/1/1_18.jpg,0.0,outdoors,Toy_SeeSaw.jpg,old,0,82,82,82,0,0,0,0,,,,,,,,,,,,,,,,,732.9775772089997,730.044297667002,730.044297667002,730.044297667002,730.044297667002,730.044297667002,left,1.3000891660049092,731.625981792,731.625981792,731.625981792,731.625981792,731.625981792,731.625981792,731.625981792,731.625981792,731.625981792,6,1.3202478329985752,733.4399870839989,733.4399870839989,733.4399870839989,733.4399870839989,221.5,['return'],[3.6376714579964755],,,,,992,2022-11-28_09h40.15.205,recognition,2022.2.4,59.90002697498228,
3.92754334511961,148.319327731092,328.319327731092,high,225.14579685399,maps/google_map_1.png,166.826469122898,objects/1/1_18.jpg,0.0,outdoors,Toy_SeeSaw.jpg,old,0,82,82,82,,,,,,,,,,,,,,,,,,,,,,,,,,,,,,,,,,,,,,,,,,,,,,,,,,,992,2022-11-28_09h40.15.205,recognition,2022.2.4,59.90002697498228,
None,None,None,None,None,maps/google_map_1.png,None,objects/2/2_120.jpg,None,indoors,Briefcase_Silver.jpg,new,0,83,83,83,,,,,,,,,,,,,,,,,,,,,741.8613538749996,737.345393292002,737.345393292002,737.345393292002,737.345393292002,737.345393292002,right,2.653379415998643,740.2932574590013,740.2932574590013,740.2932574590013,740.2932574590013,740.2932574590013,740.2932574590013,740.2932574590013,740.2932574590013,740.2932574590013,1,1.5435605829989072,742.1111926250014,,,,,,,,,,,992,2022-11-28_09h40.15.205,recognition,2022.2.4,59.90002697498228,
None,None,None,None,None,maps/google_map_1.png,None,objects/2/2_69.jpg,None,outdoors,Statue_Head.jpg,new,0,84,84,84,,,,,,,,,,,,,,,,,,,,,746.4781760000042,742.3609464590045,742.3609464590045,742.3609464590045,742.3609464590045,742.3609464590045,right,3.0105225830047857,745.6607832500013,745.6607832500013,745.6607832500013,745.6607832500013,745.6607832500013,745.6607832500013,745.6607832500013,745.6607832500013,745.6607832500013,1,0.7855007920006756,746.7283588749997,,,,,,,,,,,992,2022-11-28_09h40.15.205,recognition,2022.2.4,59.90002697498228,
5.93195336185991,71.8991596638655,251.89915966386602,low,340.048281890059,maps/google_map_1.png,1.85087777380689,objects/1/1_59.jpg,0.0,indoors,Candy_Toffee.jpg,old,0,85,85,85,0,0,0,0,,,,,,,,,,,,,,,,,749.5951820420014,746.9779145420034,746.9779145420034,746.9779145420034,746.9779145420034,746.9779145420034,left,0.9024709579971386,748.175889416998,748.175889416998,748.175889416998,748.175889416998,748.175889416998,748.175889416998,748.175889416998,748.175889416998,748.175889416998,6,1.3923482499958482,750.05872275,750.05872275,750.05872275,750.05872275,310.0,['return'],[2.510489874999621],,,,,992,2022-11-28_09h40.15.205,recognition,2022.2.4,59.90002697498228,
5.93195336185991,71.8991596638655,251.89915966386602,low,340.048281890059,maps/google_map_1.png,1.85087777380689,objects/1/1_59.jpg,0.0,indoors,Candy_Toffee.jpg,old,0,85,85,85,,,,,,,,,,,,,,,,,,,,,,,,,,,,,,,,,,,,,,,,,,,,,,,,,,,992,2022-11-28_09h40.15.205,recognition,2022.2.4,59.90002697498228,
3.9269260434692597,148.319327731092,328.319327731092,high,225.110410135181,maps/google_map_1.png,166.791082404088,objects/1/1_91.jpg,0.0,indoors,Abacus.jpg,old,0,86,86,86,0,0,0,0,,,,,,,,,,,,,,,,,760.0283022500007,752.8294427500005,752.8294427500005,752.8294427500005,752.8294427500005,752.8294427500005,left,2.468097457996919,755.594037709001,755.594037709001,755.594037709001,755.594037709001,755.594037709001,755.594037709001,755.594037709001,755.594037709001,755.594037709001,6,4.41705075000209,760.4890663749975,760.4890663749975,760.4890663749975,760.4890663749975,228.5,['return'],[3.237409416004084],,,,,992,2022-11-28_09h40.15.205,recognition,2022.2.4,59.90002697498228,
3.9269260434692597,148.319327731092,328.319327731092,high,225.110410135181,maps/google_map_1.png,166.791082404088,objects/1/1_91.jpg,0.0,indoors,Abacus.jpg,old,0,86,86,86,,,,,,,,,,,,,,,,,,,,,,,,,,,,,,,,,,,,,,,,,,,,,,,,,,,992,2022-11-28_09h40.15.205,recognition,2022.2.4,59.90002697498228,
None,None,None,None,None,maps/google_map_1.png,None,objects/2/2_89.jpg,None,outdoors,Bird_Duck.jpg,new,0,87,87,87,,,,,,,,,,,,,,,,,,,,,767.3290400839978,763.996025542001,763.996025542001,763.996025542001,763.996025542001,763.996025542001,right,2.161076583004615,766.4437637090014,766.4437637090014,766.4437637090014,766.4437637090014,766.4437637090014,766.4437637090014,766.4437637090014,766.4437637090014,766.4437637090014,1,0.8606631250004284,767.5780654170012,,,,,,,,,,,992,2022-11-28_09h40.15.205,recognition,2022.2.4,59.90002697498228,
0.48747976771791396,71.8991596638655,251.89915966386602,low,27.944700060262605,maps/google_map_1.png,46.045540396397,objects/1/1_51.jpg,0.0,indoors,Toy_LambPlushie.jpg,old,0,88,88,88,0,0,0,0,,,,,,,,,,,,,,,,,770.5451894590005,767.8283335840024,767.8283335840024,767.8283335840024,767.8283335840024,767.8283335840024,left,1.6093416250005248,769.7270373749998,769.7270373749998,769.7270373749998,769.7270373749998,769.7270373749998,769.7270373749998,769.7270373749998,769.7270373749998,769.7270373749998,6,0.7909433739987435,771.0068154590044,771.0068154590044,771.0068154590044,771.0068154590044,32.0,['return'],[6.241959498998767],,,,,992,2022-11-28_09h40.15.205,recognition,2022.2.4,59.90002697498228,
0.48747976771791396,71.8991596638655,251.89915966386602,low,27.944700060262605,maps/google_map_1.png,46.045540396397,objects/1/1_51.jpg,0.0,indoors,Toy_LambPlushie.jpg,old,0,88,88,88,,,,,,,,,,,,,,,,,,,,,,,,,,,,,,,,,,,,,,,,,,,,,,,,,,,992,2022-11-28_09h40.15.205,recognition,2022.2.4,59.90002697498228,
None,None,None,None,None,maps/google_map_1.png,None,objects/2/2_1.jpg,None,indoors,Sieve_SideView.jpg,new,0,89,89,89,,,,,,,,,,,,,,,,,,,,,791.6123711250038,777.5117501670029,777.5117501670029,777.5117501670029,777.5117501670029,777.5117501670029,left,11.268828457999916,789.077265042004,789.077265042004,789.077265042004,789.077265042004,789.077265042004,789.077265042004,789.077265042004,789.077265042004,789.077265042004,4,2.506847041004221,791.8624682919981,,,,,,,,,,,992,2022-11-28_09h40.15.205,recognition,2022.2.4,59.90002697498228,
3.14457938999197,148.319327731092,328.319327731092,medium,180.26251280208803,maps/google_map_1.png,121.943185070995,objects/1/1_44.jpg,0.0,outdoors,Camel_Dromedary.jpg,old,0,90,90,90,0,0,0,0,,,,,,,,,,,,,,,,,795.6791784590023,792.1117326250023,792.1117326250023,792.1117326250023,792.1117326250023,792.1117326250023,left,1.5750139580050018,793.9784827920012,793.9784827920012,793.9784827920012,793.9784827920012,793.9784827920012,793.9784827920012,793.9784827920012,793.9784827920012,793.9784827920012,6,1.6702057079965016,796.1409350419999,796.1409350419999,796.1409350419999,796.1409350419999,137.5,['return'],[5.906443082996702],,,,,992,2022-11-28_09h40.15.205,recognition,2022.2.4,59.90002697498228,
3.14457938999197,148.319327731092,328.319327731092,medium,180.26251280208803,maps/google_map_1.png,121.943185070995,objects/1/1_44.jpg,0.0,outdoors,Camel_Dromedary.jpg,old,0,90,90,90,,,,,,,,,,,,,,,,,,,,,,,,,,,,,,,,,,,,,,,,,,,,,,,,,,,992,2022-11-28_09h40.15.205,recognition,2022.2.4,59.90002697498228,
None,None,None,None,None,maps/google_map_1.png,None,objects/2/2_68.jpg,None,indoors,KitchenTools.jpg,new,0,91,91,91,,,,,,,,,,,,,,,,,,,,,806.3949807919998,802.3126432499994,802.3126432499994,802.3126432499994,802.3126432499994,802.3126432499994,right,2.192124249995686,804.7968061670035,804.7968061670035,804.7968061670035,804.7968061670035,804.7968061670035,804.7968061670035,804.7968061670035,804.7968061670035,804.7968061670035,1,1.5725379169962252,806.6460552499993,,,,,,,,,,,992,2022-11-28_09h40.15.205,recognition,2022.2.4,59.90002697498228,
None,None,None,None,None,maps/google_map_1.png,None,objects/2/2_28.jpg,None,outdoors,LawnMower.jpg,new,0,92,92,92,,,,,,,,,,,,,,,,,,,,,810.1953197920011,806.8949586250019,806.8949586250019,806.8949586250019,806.8949586250019,806.8949586250019,right,2.3997178749996237,809.578903499998,809.578903499998,809.578903499998,809.578903499998,809.578903499998,809.578903499998,809.578903499998,809.578903499998,809.578903499998,1,0.5985957499942742,810.4457294590029,,,,,,,,,,,992,2022-11-28_09h40.15.205,recognition,2022.2.4,59.90002697498228,
None,None,None,None,None,maps/google_map_1.png,None,objects/2/2_101.jpg,None,outdoors,PoliceTape.jpg,new,0,93,93,93,,,,,,,,,,,,,,,,,,,,,812.3622071249993,810.6963947500044,810.6963947500044,810.6963947500044,810.6963947500044,810.6963947500044,right,0.766625042000669,811.7433746250026,811.7433746250026,811.7433746250026,811.7433746250026,811.7433746250026,811.7433746250026,811.7433746250026,811.7433746250026,811.7433746250026,1,0.5952646659934544,812.6128520420025,,,,,,,,,,,992,2022-11-28_09h40.15.205,recognition,2022.2.4,59.90002697498228,
2.1151913542011003,71.8991596638655,251.89915966386602,high,121.25300756566799,maps/google_map_1.png,139.353847901802,objects/1/1_50.jpg,0.0,outdoors,GatedEntrance.jpg,old,0,94,94,94,0,0,0,0,,,,,,,,,,,,,,,,,817.4630785420013,812.8628236250006,812.8628236250006,812.8628236250006,812.8628236250006,812.8628236250006,left,2.6017121660042903,815.764274125002,815.764274125002,815.764274125002,815.764274125002,815.764274125002,815.764274125002,815.764274125002,815.764274125002,815.764274125002,5,1.6655037499949685,817.9246098750009,817.9246098750009,817.9246098750009,817.9246098750009,222.5,['return'],[1.6294887499971082],,,,,992,2022-11-28_09h40.15.205,recognition,2022.2.4,59.90002697498228,
2.1151913542011003,71.8991596638655,251.89915966386602,high,121.25300756566799,maps/google_map_1.png,139.353847901802,objects/1/1_50.jpg,0.0,outdoors,GatedEntrance.jpg,old,0,94,94,94,,,,,,,,,,,,,,,,,,,,,,,,,,,,,,,,,,,,,,,,,,,,,,,,,,,992,2022-11-28_09h40.15.205,recognition,2022.2.4,59.90002697498228,
1.10918743929277,148.319327731092,328.319327731092,low,63.5839933352542,maps/google_map_1.png,5.26466560416175,objects/1/1_17.jpg,0.0,indoors,WashingMachine.jpg,old,0,95,95,95,0,0,0,0,,,,,,,,,,,,,,,,,823.0956292499977,819.8126406250012,819.8126406250012,819.8126406250012,819.8126406250012,819.8126406250012,left,2.13542179200158,822.2436683749984,822.2436683749984,822.2436683749984,822.2436683749984,822.2436683749984,822.2436683749984,822.2436683749984,822.2436683749984,822.2436683749984,6,0.8341789999976754,823.5567818339987,823.5567818339987,823.5567818339987,823.5567818339987,39.0,['return'],[1.7039421250010491],,,,,992,2022-11-28_09h40.15.205,recognition,2022.2.4,59.90002697498228,
1.10918743929277,148.319327731092,328.319327731092,low,63.5839933352542,maps/google_map_1.png,5.26466560416175,objects/1/1_17.jpg,0.0,indoors,WashingMachine.jpg,old,0,95,95,95,,,,,,,,,,,,,,,,,,,,,,,,,,,,,,,,,,,,,,,,,,,,,,,,,,,992,2022-11-28_09h40.15.205,recognition,2022.2.4,59.90002697498228,
None,None,None,None,None,maps/google_map_1.png,None,objects/2/2_58.jpg,None,indoors,Fryingpan.jpg,new,0,96,96,96,,,,,,,,,,,,,,,,,,,,,830.5459677090039,825.5295911670037,825.5295911670037,825.5295911670037,825.5295911670037,825.5295911670037,left,1.3281007079931442,827.1447367920046,827.1447367920046,827.1447367920046,827.1447367920046,827.1447367920046,827.1447367920046,827.1447367920046,827.1447367920046,827.1447367920046,1,3.3839274999991176,830.7964121670011,,,,,,,,,,,992,2022-11-28_09h40.15.205,recognition,2022.2.4,59.90002697498228,
None,None,None,None,None,maps/google_map_1.png,None,objects/2/2_22.jpg,None,outdoors,Hippopotamus.jpg,new,0,97,97,97,,,,,,,,,,,,,,,,,,,,,834.2460989590036,831.0455957500017,831.0455957500017,831.0455957500017,831.0455957500017,831.0455957500017,right,2.079269875001046,833.4113254170006,833.4113254170006,833.4113254170006,833.4113254170006,833.4113254170006,833.4113254170006,833.4113254170006,833.4113254170006,833.4113254170006,1,0.8069446660010726,834.4962809170029,,,,,,,,,,,992,2022-11-28_09h40.15.205,recognition,2022.2.4,59.90002697498228,
None,None,None,None,None,maps/google_map_1.png,None,objects/2/2_45.jpg,None,indoors,Crib_Basket.jpg,new,0,98,98,98,,,,,,,,,,,,,,,,,,,,,836.4800162500032,834.7467938749978,834.7467938749978,834.7467938749978,834.7467938749978,834.7467938749978,right,0.9551707499995246,835.9946299170042,835.9946299170042,835.9946299170042,835.9946299170042,835.9946299170042,835.9946299170042,835.9946299170042,835.9946299170042,835.9946299170042,1,0.4586858749971725,836.7295134169981,,,,,,,,,,,992,2022-11-28_09h40.15.205,recognition,2022.2.4,59.90002697498228,
0.789928852218592,71.8991596638655,251.89915966386602,medium,45.282545668581704,maps/google_map_1.png,63.38338600471621,objects/1/1_36.jpg,0.0,outdoors,Hay.jpg,old,0,99,99,99,0,0,0,0,,,,,,,,,,,,,,,,,839.162355542001,836.9806175839985,836.9806175839985,836.9806175839985,836.9806175839985,836.9806175839985,left,0.9559218329959549,838.2314210839977,838.2314210839977,838.2314210839977,838.2314210839977,838.2314210839977,838.2314210839977,838.2314210839977,838.2314210839977,838.2314210839977,6,0.9099341660039499,839.6261988339975,839.6261988339975,839.6261988339975,839.6261988339975,42.5,['return'],[1.7137231660017278],,,,,992,2022-11-28_09h40.15.205,recognition,2022.2.4,59.90002697498228,
0.789928852218592,71.8991596638655,251.89915966386602,medium,45.282545668581704,maps/google_map_1.png,63.38338600471621,objects/1/1_36.jpg,0.0,outdoors,Hay.jpg,old,0,99,99,99,,,,,,,,,,,,,,,,,,,,,,,,,,,,,,,,,,,,,,,,,,,,,,,,,,,992,2022-11-28_09h40.15.205,recognition,2022.2.4,59.90002697498228,
None,None,None,None,None,maps/google_map_1.png,None,objects/2/2_72.jpg,None,outdoors,PirateFlag.jpg,new,0,100,100,100,,,,,,,,,,,,,,,,,,,,,843.9790945839995,841.6137999999992,841.6137999999992,841.6137999999992,841.6137999999992,841.6137999999992,right,1.3969984999930602,843.2947894169993,843.2947894169993,843.2947894169993,843.2947894169993,843.2947894169993,843.2947894169993,843.2947894169993,843.2947894169993,843.2947894169993,1,0.6660975830018288,844.2294744590035,,,,,,,,,,,992,2022-11-28_09h40.15.205,recognition,2022.2.4,59.90002697498228,
None,None,None,None,None,maps/google_map_1.png,None,objects/2/2_70.jpg,None,outdoors,Paratrooper.jpg,new,0,101,101,101,,,,,,,,,,,,,,,,,,,,,847.0466592500015,844.4794641250046,844.4794641250046,844.4794641250046,844.4794641250046,844.4794641250046,right,1.648067373993399,846.4122439999992,846.4122439999992,846.4122439999992,846.4122439999992,846.4122439999992,846.4122439999992,846.4122439999992,846.4122439999992,846.4122439999992,1,0.6117871250025928,847.2967362499985,,,,,,,,,,,992,2022-11-28_09h40.15.205,recognition,2022.2.4,59.90002697498228,
None,None,None,None,None,maps/google_map_1.png,None,objects/2/2_91.jpg,None,outdoors,PortaPotty.jpg,new,0,102,102,102,,,,,,,,,,,,,,,,,,,,,849.3966670000009,847.5460019590028,847.5460019590028,847.5460019590028,847.5460019590028,847.5460019590028,right,0.9663703329933924,848.7950186669987,848.7950186669987,848.7950186669987,848.7950186669987,848.7950186669987,848.7950186669987,848.7950186669987,848.7950186669987,848.7950186669987,1,0.5748307500034571,849.6465543340018,,,,,,,,,,,992,2022-11-28_09h40.15.205,recognition,2022.2.4,59.90002697498228,
5.84664382643996,71.8991596638655,251.89915966386602,low,335.157926356431,maps/google_map_1.png,6.741233307434911,objects/1/1_100.jpg,0.0,indoors,Chair_BeanBag.jpg,old,0,103,103,103,0,0,0,0,,,,,,,,,,,,,,,,,853.2469419170011,849.8961140840038,849.8961140840038,849.8961140840038,849.8961140840038,849.8961140840038,left,1.1759757910040207,851.3658700840024,851.3658700840024,851.3658700840024,851.3658700840024,851.3658700840024,851.3658700840024,851.3658700840024,851.3658700840024,851.3658700840024,6,1.8511462500027847,853.7114206250044,853.7114206250044,853.7114206250044,853.7114206250044,303.0,['return'],[3.5956216659978963],,,,,992,2022-11-28_09h40.15.205,recognition,2022.2.4,59.90002697498228,
5.84664382643996,71.8991596638655,251.89915966386602,low,335.157926356431,maps/google_map_1.png,6.741233307434911,objects/1/1_100.jpg,0.0,indoors,Chair_BeanBag.jpg,old,0,103,103,103,,,,,,,,,,,,,,,,,,,,,,,,,,,,,,,,,,,,,,,,,,,,,,,,,,,992,2022-11-28_09h40.15.205,recognition,2022.2.4,59.90002697498228,
3.24686821143275,71.8991596638655,251.89915966386602,high,186.12620320315102,maps/google_map_1.png,155.772956460714,objects/1/1_137.jpg,0.0,indoors,CigarCase.jpg,old,0,104,104,104,0,0,0,0,,,,,,,,,,,,,,,,,862.4637577920003,857.5642956250013,857.5642956250013,857.5642956250013,857.5642956250013,857.5642956250013,left,3.6377709999942454,861.496545916998,861.496545916998,861.496545916998,861.496545916998,861.496545916998,861.496545916998,861.496545916998,861.496545916998,861.496545916998,6,0.9381606660026591,862.9246808340031,862.9246808340031,862.9246808340031,862.9246808340031,235.5,['return'],[3.0782859579921933],,,,,992,2022-11-28_09h40.15.205,recognition,2022.2.4,59.90002697498228,
3.24686821143275,71.8991596638655,251.89915966386602,high,186.12620320315102,maps/google_map_1.png,155.772956460714,objects/1/1_137.jpg,0.0,indoors,CigarCase.jpg,old,0,104,104,104,,,,,,,,,,,,,,,,,,,,,,,,,,,,,,,,,,,,,,,,,,,,,,,,,,,992,2022-11-28_09h40.15.205,recognition,2022.2.4,59.90002697498228,
None,None,None,None,None,maps/google_map_1.png,None,objects/2/2_5.jpg,None,indoors,Glass_Beer.jpg,new,0,105,105,105,,,,,,,,,,,,,,,,,,,,,870.730022374999,866.2634673749999,866.2634673749999,866.2634673749999,866.2634673749999,866.2634673749999,right,3.305456623995269,869.8610131669993,869.8610131669993,869.8610131669993,869.8610131669993,869.8610131669993,869.8610131669993,869.8610131669993,869.8610131669993,869.8610131669993,1,0.8384737499945913,870.9801845839975,,,,,,,,,,,992,2022-11-28_09h40.15.205,recognition,2022.2.4,59.90002697498228,
2.3257941663896604,148.319327731092,328.319327731092,medium,133.325780238898,maps/google_map_1.png,75.0064525078051,objects/1/1_23.jpg,0.0,indoors,HairScrunchie.jpg,old,0,106,106,106,0,0,0,0,,,,,,,,,,,,,,,,,873.1464281669978,871.2310869170033,871.2310869170033,871.2310869170033,871.2310869170033,871.2310869170033,left,0.9003939999965951,872.431633334003,872.431633334003,872.431633334003,872.431633334003,872.431633334003,872.431633334003,872.431633334003,872.431633334003,872.431633334003,6,0.698660457994265,873.6100192500016,873.6100192500016,873.6100192500016,873.6100192500016,147.5,['return'],[3.5957712500021444],,,,,992,2022-11-28_09h40.15.205,recognition,2022.2.4,59.90002697498228,
2.3257941663896604,148.319327731092,328.319327731092,medium,133.325780238898,maps/google_map_1.png,75.0064525078051,objects/1/1_23.jpg,0.0,indoors,HairScrunchie.jpg,old,0,106,106,106,,,,,,,,,,,,,,,,,,,,,,,,,,,,,,,,,,,,,,,,,,,,,,,,,,,992,2022-11-28_09h40.15.205,recognition,2022.2.4,59.90002697498228,
None,None,None,None,None,maps/google_map_1.png,None,objects/2/2_82.jpg,None,indoors,Drum_Conga.jpg,new,0,107,107,107,,,,,,,,,,,,,,,,,,,,,884.0640270000004,877.4649974589993,877.4649974589993,877.4649974589993,877.4649974589993,877.4649974589993,right,5.086086582996359,882.8473024589985,882.8473024589985,882.8473024589985,882.8473024589985,882.8473024589985,882.8473024589985,882.8473024589985,882.8473024589985,882.8473024589985,1,1.2000132909961394,884.313648084004,,,,,,,,,,,992,2022-11-28_09h40.15.205,recognition,2022.2.4,59.90002697498228,
0.691657706209344,148.319327731092,328.319327731092,low,39.6491678718732,maps/google_map_1.png,18.670159859219197,objects/1/1_26.jpg,0.0,indoors,JuiceBox.jpg,old,0,108,108,108,0,0,0,0,,,,,,,,,,,,,,,,,886.9803133340029,884.5644541670044,884.5644541670044,884.5644541670044,884.5644541670044,884.5644541670044,left,1.2378712499994435,886.0953494170026,886.0953494170026,886.0953494170026,886.0953494170026,886.0953494170026,886.0953494170026,886.0953494170026,886.0953494170026,886.0953494170026,6,0.868459500001336,887.4479895839977,887.4479895839977,887.4479895839977,887.4479895839977,58.5,['return'],[3.0411369999928866],,,,,992,2022-11-28_09h40.15.205,recognition,2022.2.4,59.90002697498228,
0.691657706209344,148.319327731092,328.319327731092,low,39.6491678718732,maps/google_map_1.png,18.670159859219197,objects/1/1_26.jpg,0.0,indoors,JuiceBox.jpg,old,0,108,108,108,,,,,,,,,,,,,,,,,,,,,,,,,,,,,,,,,,,,,,,,,,,,,,,,,,,992,2022-11-28_09h40.15.205,recognition,2022.2.4,59.90002697498228,
2.23671523458584,148.319327731092,328.319327731092,medium,128.219344657787,maps/google_map_1.png,69.9000169266947,objects/1/1_78.jpg,0.0,indoors,Blueprints.jpg,old,0,109,109,109,0,0,0,0,,,,,,,,,,,,,,,,,896.0142115420022,890.747988916999,890.747988916999,890.747988916999,890.747988916999,890.747988916999,left,3.438236540998332,894.4785653750005,894.4785653750005,894.4785653750005,894.4785653750005,894.4785653750005,894.4785653750005,894.4785653750005,894.4785653750005,894.4785653750005,6,1.5055399579941877,896.4737618340005,896.4737618340005,896.4737618340005,896.4737618340005,175.0,['return'],[1.9591621660001692],,,,,992,2022-11-28_09h40.15.205,recognition,2022.2.4,59.90002697498228,
2.23671523458584,148.319327731092,328.319327731092,medium,128.219344657787,maps/google_map_1.png,69.9000169266947,objects/1/1_78.jpg,0.0,indoors,Blueprints.jpg,old,0,109,109,109,,,,,,,,,,,,,,,,,,,,,,,,,,,,,,,,,,,,,,,,,,,,,,,,,,,992,2022-11-28_09h40.15.205,recognition,2022.2.4,59.90002697498228,
None,None,None,None,None,maps/google_map_1.png,None,objects/2/2_102.jpg,None,outdoors,Golf_Club.jpg,new,0,110,110,110,,,,,,,,,,,,,,,,,,,,,900.8464838340005,898.6974681249994,898.6974681249994,898.6974681249994,898.6974681249994,898.6974681249994,right,1.2321621239971137,900.2129588750031,900.2129588750031,900.2129588750031,900.2129588750031,900.2129588750031,900.2129588750031,900.2129588750031,900.2129588750031,900.2129588750031,1,0.6098536659992533,901.0972865840013,,,,,,,,,,,992,2022-11-28_09h40.15.205,recognition,2022.2.4,59.90002697498228,
None,None,None,None,None,maps/google_map_1.png,None,objects/2/2_36.jpg,None,indoors,Blanket.jpg,new,0,111,111,111,,,,,,,,,,,,,,,,,,,,,903.2643620840026,901.3468294999984,901.3468294999984,901.3468294999984,901.3468294999984,901.3468294999984,right,1.039486958005,902.6795413750006,902.6795413750006,902.6795413750006,902.6795413750006,902.6795413750006,902.6795413750006,902.6795413750006,902.6795413750006,902.6795413750006,1,0.5571803330021794,902.6795413750006,,,,,,,,,,,992,2022-11-28_09h40.15.205,recognition,2022.2.4,59.90002697498228,
None,None,None,None,None,maps/google_map_1.png,None,objects/2/2_117.jpg,None,outdoors,BicycleWheelRusty.jpg,new,0,112,112,112,,,,,,,,,,,,,,,,,,,,,906.4977626250038,903.7643401669993,903.7643401669993,903.7643401669993,903.7643401669993,903.7643401669993,right,1.8051899159981986,905.8619887500026,905.8619887500026,905.8619887500026,905.8619887500026,905.8619887500026,905.8619887500026,905.8619887500026,905.8619887500026,905.8619887500026,1,0.6130395410000347,905.8619887500026,,,,,,,,,,,992,2022-11-28_09h40.15.205,recognition,2022.2.4,59.90002697498228,
None,None,None,None,None,maps/google_map_1.png,None,objects/2/2_55.jpg,None,indoors,Desk_School.jpg,new,0,113,113,113,,,,,,,,,,,,,,,,,,,,,909.1802307500038,906.998070667003,906.998070667003,906.998070667003,906.998070667003,906.998070667003,right,0.9166184999994584,908.2165013749982,908.2165013749982,908.2165013749982,908.2165013749982,908.2165013749982,908.2165013749982,908.2165013749982,908.2165013749982,908.2165013749982,1,0.9472216249996563,909.430771542,,,,,,,,,,,992,2022-11-28_09h40.15.205,recognition,2022.2.4,59.90002697498228,
None,None,None,None,None,maps/google_map_1.png,None,objects/2/2_4.jpg,None,indoors,Boardgame_Chess.jpg,new,0,114,114,114,,,,,,,,,,,,,,,,,,,,,912.0809362500004,909.680475084002,909.680475084002,909.680475084002,909.680475084002,909.680475084002,right,1.5854294160017162,911.5629703340019,911.5629703340019,911.5629703340019,911.5629703340019,911.5629703340019,911.5629703340019,911.5629703340019,911.5629703340019,911.5629703340019,1,0.5009045829938259,912.330958958999,,,,,,,,,,,992,2022-11-28_09h40.15.205,recognition,2022.2.4,59.90002697498228,
2.01725210084034,328.319327731092,356.98319327731105,singletons,115.638655462185,maps/google_map_1.png,None,objects/1/1_31.jpg,0.0,indoors,Shirt_Tshirt.jpg,old,0,115,115,115,0,0,0,0,,,,,,,,,,,,,,,,,914.7639696670012,912.5805811669998,912.5805811669998,912.5805811669998,912.5805811669998,912.5805811669998,left,1.164910207997309,914.0263121669996,914.0263121669996,914.0263121669996,914.0263121669996,914.0263121669996,914.0263121669996,914.0263121669996,914.0263121669996,914.0263121669996,6,0.7126400419947458,914.0263121669996,915.2274264170046,915.2274264170046,915.2274264170046,57.0,['return'],[5.06526812499942],,,,,992,2022-11-28_09h40.15.205,recognition,2022.2.4,59.90002697498228,
2.01725210084034,328.319327731092,356.98319327731105,singletons,115.638655462185,maps/google_map_1.png,None,objects/1/1_31.jpg,0.0,indoors,Shirt_Tshirt.jpg,old,0,115,115,115,,,,,,,,,,,,,,,,,,,,,,,,,,,,,,,,,,,,,,,,,,,,,,,,,,,992,2022-11-28_09h40.15.205,recognition,2022.2.4,59.90002697498228,
3.46330671199857,148.319327731092,328.319327731092,high,198.533505783358,maps/google_map_1.png,140.214178052265,objects/1/1_142.jpg,0.0,indoors,Ball_Disco.jpg,old,0,116,116,116,0,0,0,0,,,,,,,,,,,,,,,,,923.6144550419995,920.5656105419985,920.5656105419985,920.5656105419985,920.5656105419985,920.5656105419985,left,1.3414027920007356,922.1962581670014,922.1962581670014,922.1962581670014,922.1962581670014,922.1962581670014,922.1962581670014,922.1962581670014,922.1962581670014,922.1962581670014,6,1.3992650409927592,924.0792280419992,924.0792280419992,924.0792280419992,924.0792280419992,233.5,['return'],[2.3570321669976693],,,,,992,2022-11-28_09h40.15.205,recognition,2022.2.4,59.90002697498228,
3.46330671199857,148.319327731092,328.319327731092,high,198.533505783358,maps/google_map_1.png,140.214178052265,objects/1/1_142.jpg,0.0,indoors,Ball_Disco.jpg,old,0,116,116,116,,,,,,,,,,,,,,,,,,,,,,,,,,,,,,,,,,,,,,,,,,,,,,,,,,,992,2022-11-28_09h40.15.205,recognition,2022.2.4,59.90002697498228,
0.630978256004724,148.319327731092,328.319327731092,low,36.1707280512262,maps/google_map_1.png,22.148599679866198,objects/1/1_12.jpg,0.0,outdoors,Van.jpg,old,0,117,117,117,0,0,0,0,,,,,,,,,,,,,,,,,930.8478788339999,926.697852792,926.697852792,926.697852792,926.697852792,926.697852792,left,1.9643869579958846,928.9450403340015,928.9450403340015,928.9450403340015,928.9450403340015,928.9450403340015,928.9450403340015,928.9450403340015,928.9450403340015,928.9450403340015,6,1.8719305409977096,931.3104634170013,931.3104634170013,931.3104634170013,931.3104634170013,215.0,['return'],[5.884653499997512],,,,,992,2022-11-28_09h40.15.205,recognition,2022.2.4,59.90002697498228,
0.630978256004724,148.319327731092,328.319327731092,low,36.1707280512262,maps/google_map_1.png,22.148599679866198,objects/1/1_12.jpg,0.0,outdoors,Van.jpg,old,0,117,117,117,,,,,,,,,,,,,,,,,,,,,,,,,,,,,,,,,,,,,,,,,,,,,,,,,,,992,2022-11-28_09h40.15.205,recognition,2022.2.4,59.90002697498228,
5.70597886186679,71.8991596638655,251.89915966386602,low,327.094329661153,maps/google_map_1.png,14.8048300027121,objects/1/1_83.jpg,0.0,indoors,Chair_Office.jpg,old,0,118,118,118,0,0,0,0,,,,,,,,,,,,,,,,,940.1149018340002,937.4658420839987,937.4658420839987,937.4658420839987,937.4658420839987,937.4658420839987,left,1.7262689999988652,939.4810893340036,939.4810893340036,939.4810893340036,939.4810893340036,939.4810893340036,939.4810893340036,939.4810893340036,939.4810893340036,939.4810893340036,6,0.6088659160013776,937.4658420839987,940.5774624170008,940.5774624170008,940.5774624170008,38.5,['return'],[2.1912997489998816],,,,,992,2022-11-28_09h40.15.205,recognition,2022.2.4,59.90002697498228,
5.70597886186679,71.8991596638655,251.89915966386602,low,327.094329661153,maps/google_map_1.png,14.8048300027121,objects/1/1_83.jpg,0.0,indoors,Chair_Office.jpg,old,0,118,118,118,,,,,,,,,,,,,,,,,,,,,,,,,,,,,,,,,,,,,,,,,,,,,,,,,,,992,2022-11-28_09h40.15.205,recognition,2022.2.4,59.90002697498228,
None,None,None,None,None,maps/google_map_1.png,None,objects/2/2_37.jpg,None,indoors,Bowl_Sugar.jpg,new,0,119,119,119,,,,,,,,,,,,,,,,,,,,,947.2816488750032,943.0310207090006,943.0310207090006,943.0310207090006,943.0310207090006,943.0310207090006,left,0.6478698740029358,943.9629563749986,943.9629563749986,943.9629563749986,943.9629563749986,943.9629563749986,943.9629563749986,943.9629563749986,943.9629563749986,943.9629563749986,1,3.294202332996065,943.9629563749986,,,,,,,,,,,992,2022-11-28_09h40.15.205,recognition,2022.2.4,59.90002697498228,
5.4315788274337,71.8991596638655,251.89915966386602,low,311.36439138155,maps/google_map_1.png,30.534768282315998,objects/1/1_108.jpg,0.0,outdoors,Ambulance.jpg,old,0,120,120,120,0,0,0,0,,,,,,,,,,,,,,,,,951.5317194169984,947.7806726249983,947.7806726249983,947.7806726249983,947.7806726249983,947.7806726249983,left,1.3485315409998293,949.4139845840036,949.4139845840036,949.4139845840036,949.4139845840036,949.4139845840036,949.4139845840036,949.4139845840036,949.4139845840036,949.4139845840036,6,2.0859918739952263,951.9933535000018,951.9933535000018,951.9933535000018,951.9933535000018,236.5,['return'],[2.45881370799907],,,,,992,2022-11-28_09h40.15.205,recognition,2022.2.4,59.90002697498228,
5.4315788274337,71.8991596638655,251.89915966386602,low,311.36439138155,maps/google_map_1.png,30.534768282315998,objects/1/1_108.jpg,0.0,outdoors,Ambulance.jpg,old,0,120,120,120,,,,,,,,,,,,,,,,,,,,,,,,,,,,,,,,,,,,,,,,,,,,,,,,,,,992,2022-11-28_09h40.15.205,recognition,2022.2.4,59.90002697498228,
None,None,None,None,None,maps/google_map_1.png,None,objects/2/2_118.jpg,None,outdoors,Teardrop.jpg,new,0,121,121,121,,,,,,,,,,,,,,,,,,,,,958.3482836670009,954.7293521669999,954.7293521669999,954.7293521669999,954.7293521669999,954.7293521669999,right,1.3524358330032555,956.3653013750009,956.3653013750009,956.3653013750009,956.3653013750009,956.3653013750009,956.3653013750009,956.3653013750009,956.3653013750009,956.3653013750009,1,1.9594422910013236,958.5983597500017,,,,,,,,,,,992,2022-11-28_09h40.15.205,recognition,2022.2.4,59.90002697498228,
None,None,None,None,None,maps/google_map_1.png,None,objects/2/2_114.jpg,None,indoors,Piano_Keyboard.jpg,new,0,122,122,122,,,,,,,,,,,,,,,,,,,,,960.4805955839984,958.8483537499997,958.8483537499997,958.8483537499997,958.8483537499997,958.8483537499997,right,0.9522950409955229,960.0973901250036,960.0973901250036,960.0973901250036,960.0973901250036,960.0973901250036,960.0973901250036,960.0973901250036,960.0973901250036,960.0973901250036,1,0.3667550409954856,960.731576416998,,,,,,,,,,,992,2022-11-28_09h40.15.205,recognition,2022.2.4,59.90002697498228,
1.2275583630745,148.319327731092,328.319327731092,low,70.36958769216851,maps/google_map_1.png,12.0502599610761,objects/1/1_122.jpg,0.0,indoors,Egg_Cup.jpg,old,0,123,123,123,0,0,0,0,,,,,,,,,,,,,,,,,962.8973991669991,960.9817613749983,960.9817613749983,960.9817613749983,960.9817613749983,960.9817613749983,left,1.0754151249930146,962.3474873340019,962.3474873340019,962.3474873340019,962.3474873340019,962.3474873340019,962.3474873340019,962.3474873340019,962.3474873340019,962.3474873340019,6,0.5252941659928183,963.3649374169981,963.3649374169981,963.3649374169981,963.3649374169981,36.5,['return'],[3.163228416000493],,,,,992,2022-11-28_09h40.15.205,recognition,2022.2.4,59.90002697498228,
1.2275583630745,148.319327731092,328.319327731092,low,70.36958769216851,maps/google_map_1.png,12.0502599610761,objects/1/1_122.jpg,0.0,indoors,Egg_Cup.jpg,old,0,123,123,123,,,,,,,,,,,,,,,,,,,,,,,,,,,,,,,,,,,,,,,,,,,,,,,,,,,992,2022-11-28_09h40.15.205,recognition,2022.2.4,59.90002697498228,
1.61091051948466,148.319327731092,328.319327731092,low,92.34518901504428,maps/google_map_1.png,34.0258612839519,objects/1/1_115.jpg,0.0,indoors,Bottle_CosmeticSpray.jpg,old,0,124,124,124,0,0,0,0,,,,,,,,,,,,,,,,,971.2483480419978,966.7982451670032,966.7982451670032,966.7982451670032,966.7982451670032,966.7982451670032,left,1.3816560830018716,968.4632302919999,968.4632302919999,968.4632302919999,968.4632302919999,968.4632302919999,968.4632302919999,968.4632302919999,968.4632302919999,968.4632302919999,6,2.766370375000406,971.7092935839974,971.7092935839974,971.7092935839974,971.7092935839974,53.0,['return'],[1.6046711250019143],,,,,992,2022-11-28_09h40.15.205,recognition,2022.2.4,59.90002697498228,
1.61091051948466,148.319327731092,328.319327731092,low,92.34518901504428,maps/google_map_1.png,34.0258612839519,objects/1/1_115.jpg,0.0,indoors,Bottle_CosmeticSpray.jpg,old,0,124,124,124,,,,,,,,,,,,,,,,,,,,,,,,,,,,,,,,,,,,,,,,,,,,,,,,,,,992,2022-11-28_09h40.15.205,recognition,2022.2.4,59.90002697498228,
None,None,None,None,None,maps/google_map_1.png,None,objects/2/2_103.jpg,None,outdoors,Hedgehog.jpg,new,0,125,125,125,,,,,,,,,,,,,,,,,,,,,976.7140544590002,973.5836627919998,973.5836627919998,973.5836627919998,973.5836627919998,973.5836627919998,right,1.7356135829977575,975.6142707090039,975.6142707090039,975.6142707090039,975.6142707090039,975.6142707090039,975.6142707090039,975.6142707090039,975.6142707090039,975.6142707090039,1,1.074341291001474,976.9642867919974,,,,,,,,,,,992,2022-11-28_09h40.15.205,recognition,2022.2.4,59.90002697498228,
2.50659176219515,148.319327731092,328.319327731092,medium,143.68997362902098,maps/google_map_1.png,85.3706458979286,objects/1/1_131.jpg,0.0,outdoors,Cart_Wooden.jpg,old,0,126,126,126,0,0,0,0,,,,,,,,,,,,,,,,,985.1475173750005,977.2153178340013,977.2153178340013,977.2153178340013,977.2153178340013,977.2153178340013,left,6.135031666999566,983.6490757089996,983.6490757089996,983.6490757089996,983.6490757089996,983.6490757089996,983.6490757089996,983.6490757089996,983.6490757089996,983.6490757089996,6,1.4741171249988838,985.614602667003,985.614602667003,985.614602667003,985.614602667003,234.5,['return'],[1.6240986659977352],,,,,992,2022-11-28_09h40.15.205,recognition,2022.2.4,59.90002697498228,
2.50659176219515,148.319327731092,328.319327731092,medium,143.68997362902098,maps/google_map_1.png,85.3706458979286,objects/1/1_131.jpg,0.0,outdoors,Cart_Wooden.jpg,old,0,126,126,126,,,,,,,,,,,,,,,,,,,,,,,,,,,,,,,,,,,,,,,,,,,,,,,,,,,992,2022-11-28_09h40.15.205,recognition,2022.2.4,59.90002697498228,
None,None,None,None,None,maps/google_map_1.png,None,objects/2/2_31.jpg,None,indoors,Plate_Decorative.jpg,new,0,127,127,127,,,,,,,,,,,,,,,,,,,,,991.231815375002,987.4990080839998,987.4990080839998,987.4990080839998,987.4990080839998,987.4990080839998,right,2.4831025829989812,990.2638739169997,990.2638739169997,990.2638739169997,990.2638739169997,990.2638739169997,990.2638739169997,990.2638739169997,990.2638739169997,990.2638739169997,1,0.935848499997519,991.4818007089998,,,,,,,,,,,992,2022-11-28_09h40.15.205,recognition,2022.2.4,59.90002697498228,
