list,radians,pos_1,pos_2,type,degrees,map_file,PE,object,isFiller,outdoors_response,stimulus,list_loop.thisRepN,list_loop.thisTrialN,list_loop.thisN,list_loop.thisIndex,trials.thisRepN,trials.thisTrialN,trials.thisN,trials.thisIndex,text.started,key_resp.started,key_resp.keys,key_resp.rt,Instr_2.started,key_resp_instr_2.started,key_resp_instr_2.keys,key_resp_instr_2.rt,Instr_3.started,key_instr_3.started,key_instr_3.keys,key_instr_3.rt,Instr_4.started,key_instr_4.started,key_instr_4.keys,key_instr_4.rt,final_instructions.started,final_instr_key.started,final_instr_key.keys,final_instr_key.rt,text_4.started,image.started,truck_1.started,truck_1.stopped,truck_2.started,truck_2.stopped,truck_3.started,truck_3.stopped,image_3.started,image_feedb.started,text_5.started,text_7.started,ind_out_resp.started,ind_out_resp.keys,ind_out_resp.rt,highlight_resp_2.started,text_8.started,text_10.started,highlight_resp_2.stopped,text_8.stopped,text_10.stopped,text_4.stopped,Break_text.started,break_resp.started,break_resp.keys,break_resp.rt,participant,date,expName,psychopyVersion,frameRate,
,,,,,,,,,,,,,,,,,,,,87.98347540013492,87.98347540013492,space,12.43629049998708,,,,,,,,,,,,,,,,,,,,,,,,,,,,,,,,,,,,,,,,,,,992,2022-11-28_09h10.24.449,test3,2022.2.4,119.01106565555759,
,,,,,,,,,,,,,,,,,,,,,,,,100.42769050016068,100.42769050016068,space,13.87275639991276,,,,,,,,,,,,,,,,,,,,,,,,,,,,,,,,,,,,,,,992,2022-11-28_09h10.24.449,test3,2022.2.4,119.01106565555759,
,,,,,,,,,,,,,,,,,,,,,,,,,,,,114.3128977001179,114.3128977001179,space,59.4686565999873,,,,,,,,,,,,,,,,,,,,,,,,,,,,,,,,,,,992,2022-11-28_09h10.24.449,test3,2022.2.4,119.01106565555759,
,,,,,,,,,,,,,,,,,,,,,,,,,,,,,,,,173.7965881000273,173.7965881000273,space,14.261065799742937,,,,,,,,,,,,,,,,,,,,,,,,,,,,,,,992,2022-11-28_09h10.24.449,test3,2022.2.4,119.01106565555759,
,,,,,,,,,,,,,,,,,,,,,,,,,,,,,,,,,,,,188.06999410013668,188.06999410013668,space,144.27896419982426,,,,,,,,,,,,,,,,,,,,,,,,,,,992,2022-11-28_09h10.24.449,test3,2022.2.4,119.01106565555759,
stimuli_position_map_1.csv,5.57231597499423,71.8991596638655,251.899159663866,low,319.432125955084,maps/google_map_1.png,22.467033708782,objects/1/1_140.jpg,0,outdoors,LifeJacket_BlueYellow.jpg,0,0,0,0,0,0,0,0,,,,,,,,,,,,,,,,,,,,,332.5164605001919,333.31351650017314,333.4790813999716,333.98109120014124,334.4790019001812,334.97905110009015,335.47919500013813,335.979131200118,336.74201739998534,336.74201739998534,337.99566310015507,337.99566310015507,337.99566310015507,l,30.803195599932224,368.8177915001288,368.8177915001288,368.8177915001288,369.8210662000347,369.8210662000347,369.8210662000347,,,,,,992,2022-11-28_09h10.24.449,test3,2022.2.4,119.01106565555759,
stimuli_position_map_1.csv,6.06383294252329,71.8991596638655,251.899159663866,low,347.608257851653,maps/google_map_1.png,5.70909818778788,objects/1/1_104.jpg,0,indoors,Pitcher.jpg,0,0,0,0,0,1,1,1,,,,,,,,,,,,,,,,,,,,,369.8210662000347,370.42982190009207,370.8209135001525,371.3210211000405,371.82088080001995,372.3209088000003,372.8211291001644,373.3210841000546,373.94482780015096,373.94482780015096,375.337608900154,375.337608900154,375.337608900154,l,0.6505446997471154,376.00447689997964,376.00447689997964,376.00447689997964,377.0062128000427,377.0062128000427,377.0062128000427,370.42982190009207,,,,,992,2022-11-28_09h10.24.449,test3,2022.2.4,119.01106565555759,
stimuli_position_map_1.csv,6.05519689085597,71.8991596638655,251.899159663866,low,347.113197564992,maps/google_map_1.png,5.21403790112609,objects/2/2_3.jpg,1,outdoors,ColumnMarble.jpg,0,0,0,0,0,2,2,2,,,,,,,,,,,,,,,,,,,,,377.0062128000427,377.6231674000155,377.9982206001878,378.50432660011575,378.9960733000189,379.49612290016375,379.9960551999975,380.49611590011045,381.13316600001417,381.13316600001417,382.52115559997037,382.52115559997037,382.52115559997037,a,0.3600806000176817,382.8960190000944,382.8960190000944,382.8960190000944,383.89612230006605,383.89612230006605,383.89612230006605,,,,,,992,2022-11-28_09h10.24.449,test3,2022.2.4,119.01106565555759,
stimuli_position_map_1.csv,6.00356653540225,71.8991596638655,251.899159663866,low,344.153495660002,maps/google_map_1.png,2.25433599613627,objects/1/1_9.jpg,0,indoors,Fridge.jpg,0,0,0,0,0,3,3,3,,,,,,,,,,,,,,,,,,,,,383.89612230006605,384.5114772000816,384.88787730014883,385.38781620003283,385.8877912000753,386.3883826001547,386.88780480017886,387.38782990002073,388.0269125001505,388.0269125001505,389.41302310000174,389.41302310000174,389.41302310000174,l,0.4264158997684717,389.8544698001351,389.8544698001351,389.8544698001351,,,,384.5114772000816,,,,,992,2022-11-28_09h10.24.449,test3,2022.2.4,119.01106565555759,
stimuli_position_map_1.csv,5.69224489365122,71.8991596638655,251.899159663866,low,326.307032120133,maps/google_map_1.png,15.5921275437321,objects/2/2_38.jpg,1,outdoors,Megaphone.jpg,0,0,0,0,0,4,4,4,,,,,,,,,,,,,,,,,,,,,390.85451270011254,391.4643051000312,391.846243100008,392.3461989001371,392.84624169999734,393.3460512000602,393.8461264001671,394.3461971001234,394.98652370017953,394.98652370017953,396.3712876001373,396.3712876001373,396.3712876001373,a,0.25883469986729324,396.6462115000468,396.6462115000468,396.6462115000468,397.64617120008916,397.64617120008916,397.64617120008916,391.4643051000312,,,,,992,2022-11-28_09h10.24.449,test3,2022.2.4,119.01106565555759,
stimuli_position_map_1.csv,5.5995671402764,71.8991596638655,251.899159663866,low,320.994294665526,maps/google_map_1.png,20.9048649983393,objects/1/1_96.jpg,0,outdoors,Backpack_Travel.jpg,0,0,0,0,0,5,5,5,,,,,,,,,,,,,,,,,,,,,397.64617120008916,398.25693919998594,398.6378540999722,399.1376816001721,399.63803660008125,400.13776389998384,400.6462299001869,401.1462350001093,401.77405580016784,401.77405580016784,403.1628484001849,403.1628484001849,403.1628484001849,l,4.9172030000481755,408.0964228999801,408.0964228999801,408.0964228999801,409.0963101000525,409.0963101000525,409.0963101000525,398.25693919998594,,,,,992,2022-11-28_09h10.24.449,test3,2022.2.4,119.01106565555759,
stimuli_position_map_1.csv,6.06517690828814,71.8991596638655,251.899159663866,low,347.685300475116,maps/google_map_1.png,5.78614081125085,objects/2/2_54.jpg,1,indoors,Bottle_Oil.jpg,0,0,0,0,0,6,6,6,,,,,,,,,,,,,,,,,,,,,409.0963101000525,409.7063319000881,410.08806050010026,410.5880259000696,411.0880386000499,411.58797980006784,412.0880873000715,412.5879479001742,413.22275760001503,413.22275760001503,414.60476290015504,414.60476290015504,414.60476290015504,l,0.4836157998070121,415.10458720009774,415.10458720009774,415.10458720009774,416.10472740000114,416.10472740000114,416.10472740000114,409.7063319000881,,,,,992,2022-11-28_09h10.24.449,test3,2022.2.4,119.01106565555759,
stimuli_position_map_1.csv,5.41352391396646,71.8991596638655,251.899159663866,low,310.329396342027,maps/google_map_1.png,31.5697633218389,objects/1/1_129.jpg,0,indoors,Shoes_DutchClogs.jpg,0,0,0,0,0,7,7,7,,,,,,,,,,,,,,,,,,,,,416.10472740000114,416.7146022999659,417.10466250008903,417.604704500176,418.10473050014116,418.60482390015386,419.1048215001356,419.6048551001586,420.2348392000422,420.2348392000422,421.62130970018916,421.62130970018916,421.62130970018916,l,0.4520268999040127,422.08883440005593,422.08883440005593,422.08883440005593,423.08796300017275,423.08796300017275,423.08796300017275,416.7146022999659,,,,,992,2022-11-28_09h10.24.449,test3,2022.2.4,119.01106565555759,
stimuli_position_map_1.csv,5.47786870518455,71.8991596638655,251.899159663866,low,314.017951252617,maps/google_map_1.png,27.8812084112481,objects/1/1_128.jpg,0,outdoors,DogHouse.jpg,0,0,0,0,0,8,8,8,,,,,,,,,,,,,,,,,,,,,423.08796300017275,423.69852009997703,424.0879705999978,424.58823330001906,425.08813010016456,425.5879667000845,426.0881378001068,426.5878898999654,427.2163402000442,427.2163402000442,428.6049183001742,428.6049183001742,428.6049183001742,a,0.3276659999974072,428.9463665999938,428.9463665999938,428.9463665999938,429.9462931000162,429.9462931000162,429.9462931000162,423.69852009997703,,,,,992,2022-11-28_09h10.24.449,test3,2022.2.4,119.01106565555759,
stimuli_position_map_1.csv,0.242326728338433,71.8991596638655,251.899159663866,low,13.891341114942,maps/google_map_1.png,31.9921814510765,objects/1/1_61.jpg,1,indoors,Bottle_Baby.jpg,0,0,0,0,0,9,9,9,,,,,,,,,,,,,,,,,,,,,429.9462931000162,430.5578243001364,430.9462707999628,431.44642150006257,431.94644740014337,432.4464851000812,432.9464706000872,433.44656149996445,434.0754929999821,434.0754929999821,435.454605899984,435.454605899984,435.454605899984,l,0.3838150000665337,435.8547225999646,435.8547225999646,435.8547225999646,436.85475850012153,436.85475850012153,436.85475850012153,430.5578243001364,,,,,992,2022-11-28_09h10.24.449,test3,2022.2.4,119.01106565555759,
stimuli_position_map_1.csv,6.2072471056701,71.8991596638655,251.899159663866,low,355.829451917395,maps/google_map_1.png,13.930292253529,objects/2/2_3.jpg,1,outdoors,ColumnMarble.jpg,0,0,0,0,0,10,10,10,,,,,,,,,,,,,,,,,,,,,436.85475850012153,437.46213190001436,437.8463024001103,438.3464447001461,438.8465470999945,439.34639870002866,439.84633800014853,440.34642620012164,440.98073250008747,440.98073250008747,442.3716296001803,442.3716296001803,442.3716296001803,a,0.49927019979804754,442.88007170008495,442.88007170008495,442.88007170008495,443.88016479997896,443.88016479997896,443.88016479997896,437.46213190001436,,,,,992,2022-11-28_09h10.24.449,test3,2022.2.4,119.01106565555759,
stimuli_position_map_1.csv,5.85007882721952,71.8991596638655,251.899159663866,low,335.354837229145,maps/google_map_1.png,6.544322434721,objects/1/1_90.jpg,1,outdoors,TreeHouse.jpg,0,0,0,0,0,11,11,11,,,,,,,,,,,,,,,,,,,,,443.88016479997896,444.4954072001856,444.8800025000237,445.3800419000909,445.8798573000822,446.3798196001444,446.8797909000423,447.37998530012555,448.01405410002917,448.01405410002917,449.39646510011517,449.39646510011517,449.39646510011517,a,0.26015129988081753,449.67169380001724,449.67169380001724,449.67169380001724,450.67161980015226,450.67161980015226,450.67161980015226,444.4954072001856,,,,,992,2022-11-28_09h10.24.449,test3,2022.2.4,119.01106565555759,
stimuli_position_map_1.csv,0.487479767717914,71.8991596638655,251.899159663866,low,27.9447000602626,maps/google_map_1.png,46.045540396397,objects/1/1_51.jpg,0,indoors,Toy_LambPlushie.jpg,0,0,0,0,0,12,12,12,,,,,,,,,,,,,,,,,,,,,450.67161980015226,451.2846097999718,451.67171010002494,452.1714841001667,452.6715079001151,453.171658199979,453.67170880013146,454.1715377001092,454.7980037999805,454.7980037999805,456.1882770000957,456.1882770000957,456.1882770000957,l,0.4300623000599444,456.6298784001265,456.6298784001265,456.6298784001265,457.62980260001495,457.62980260001495,457.62980260001495,451.2846097999718,,,,,992,2022-11-28_09h10.24.449,test3,2022.2.4,119.01106565555759,
stimuli_position_map_1.csv,5.84575231590543,71.8991596638655,251.899159663866,low,335.106820656999,maps/google_map_1.png,6.79233900686653,objects/1/1_66.jpg,0,indoors,Headset.jpg,0,0,0,0,0,13,13,13,,,,,,,,,,,,,,,,,,,,,457.62980260001495,458.2399876001291,458.6300715999678,459.1301275000442,459.62174280011095,460.1217500001658,460.62189960014075,461.12174950004555,461.7635483001359,461.7635483001359,463.14655590010807,463.14655590010807,463.14655590010807,l,0.32833289983682334,463.4884363000747,463.4884363000747,463.4884363000747,464.48856600001454,464.48856600001454,464.48856600001454,458.2399876001291,,,,,992,2022-11-28_09h10.24.449,test3,2022.2.4,119.01106565555759,
stimuli_position_map_1.csv,5.80886038773308,71.8991596638655,251.899159663866,low,332.99199674903,maps/google_map_1.png,8.90716291483539,objects/1/1_29.jpg,0,outdoors,WateringCan_Antique.jpg,0,0,0,0,0,14,14,14,,,,,,,,,,,,,,,,,,,,,464.48856600001454,465.09466140018776,465.47989060007967,465.98014570004307,466.48015119996853,466.9801986000966,467.4801011001691,467.9801857001148,468.6206104999874,468.6206104999874,470.00502509996295,470.00502509996295,470.00502509996295,a,0.23530020006000996,470.25489139999263,470.25489139999263,470.25489139999263,471.25491799996234,471.25491799996234,471.25491799996234,465.09466140018776,,,,,992,2022-11-28_09h10.24.449,test3,2022.2.4,119.01106565555759,
stimuli_position_map_1.csv,5.6841904283988,71.8991596638655,251.899159663866,low,325.845311182097,maps/google_map_1.png,16.0538484817685,objects/1/1_90.jpg,1,outdoors,TreeHouse.jpg,0,0,0,0,0,15,15,15,,,,,,,,,,,,,,,,,,,,,471.25491799996234,471.863574200077,472.2466841000132,472.74676300003193,473.2467663001735,473.7466762000695,474.2466700000223,474.74673690018244,475.3802475000266,475.3802475000266,476.77194480015896,476.77194480015896,476.77194480015896,a,0.5420430998783559,477.33012100006454,477.33012100006454,477.33012100006454,478.33013060013764,478.33013060013764,478.33013060013764,471.863574200077,,,,,992,2022-11-28_09h10.24.449,test3,2022.2.4,119.01106565555759,
stimuli_position_map_1.csv,5.96005565503041,71.8991596638655,251.899159663866,low,341.65924137117,maps/google_map_1.png,0.239918292695472,objects/2/2_38.jpg,1,outdoors,Megaphone.jpg,0,0,0,0,0,16,16,16,,,,,,,,,,,,,,,,,,,,,478.33013060013764,478.9382009000983,479.33031660015695,479.8309270001482,480.3300658999942,480.8301149001345,481.33026170008816,481.8303561999928,482.45727360015735,482.45727360015735,483.8467196000274,483.8467196000274,483.8467196000274,a,0.3803311998490244,484.23921150015667,484.23921150015667,484.23921150015667,485.2384544000961,485.2384544000961,485.2384544000961,478.9382009000983,,,,,992,2022-11-28_09h10.24.449,test3,2022.2.4,119.01106565555759,
stimuli_position_map_1.csv,5.98986513451766,71.8991596638655,251.899159663866,low,343.368065036044,maps/google_map_1.png,1.46890537217867,objects/1/1_61.jpg,1,indoors,Bottle_Baby.jpg,0,0,0,0,0,17,17,17,,,,,,,,,,,,,,,,,,,,,485.2384544000961,485.8477046000771,486.2385374000296,486.7384067000821,487.2385676000267,487.73840739997104,488.23878540005535,488.7386339001823,489.35887660016306,489.35887660016306,490.7552151000127,490.7552151000127,490.7552151000127,l,0.3357722000218928,491.1052985000424,491.1052985000424,491.1052985000424,492.10519000003114,492.10519000003114,492.10519000003114,485.8477046000771,,,,,992,2022-11-28_09h10.24.449,test3,2022.2.4,119.01106565555759,
stimuli_position_map_1.csv,4.33281886087768,161.899159663866,290.613445378151,singletons,248.378151260504,maps/google_map_1.png,None,objects/1/1_35.jpg,0,indoors,Boardgame_Checkers.jpg,0,0,0,0,0,18,18,18,,,,,,,,,,,,,,,,,,,,,492.10519000003114,492.7127998000942,493.09695959999226,493.5969538001809,494.1050864001736,494.6051604000386,495.10517740016803,495.6052922999952,496.24096700013615,496.24096700013615,497.62168800015934,497.62168800015934,497.62168800015934,l,0.2887321999296546,497.9220179000404,497.9220179000404,497.9220179000404,498.9220424001105,498.9220424001105,498.9220424001105,492.7127998000942,,,,,992,2022-11-28_09h10.24.449,test3,2022.2.4,119.01106565555759,
stimuli_position_map_1.csv,0.00876274572839,71.8991596638655,251.899159663866,low,0.502323003538285,maps/google_map_1.png,18.6031633396727,objects/1/1_49.jpg,0,outdoors,Squid_Orange.jpg,0,0,0,0,0,19,19,19,,,,,,,,,,,,,,,,,,,,,498.9220424001105,499.5300967001822,499.9219389001373,500.4219723001588,500.91361710010096,501.4137409001123,501.9137673000805,502.413743800018,503.0543300001882,503.0543300001882,504.4388596001081,504.4388596001081,504.4388596001081,a,0.5015975998248905,504.9552412000485,504.9552412000485,504.9552412000485,505.9552893000655,505.9552893000655,505.9552893000655,499.5300967001822,,,,,992,2022-11-28_09h10.24.449,test3,2022.2.4,119.01106565555759,
stimuli_position_map_1.csv,5.4315788274337,71.8991596638655,251.899159663866,low,311.36439138155,maps/google_map_1.png,30.534768282316,objects/1/1_108.jpg,0,outdoors,Ambulance.jpg,0,0,0,0,0,20,20,20,,,,,,,,,,,,,,,,,,,,,505.9552893000655,506.5670637001749,506.9553100001067,507.4552543000318,507.947145299986,508.447027400136,508.94712480017915,509.44712630007416,510.09112310013734,510.09112310013734,511.4721639000345,511.4721639000345,511.4721639000345,a,0.5719808998983353,512.0553864000831,512.0553864000831,512.0553864000831,513.055200500181,513.055200500181,513.055200500181,506.5670637001749,,,,,992,2022-11-28_09h10.24.449,test3,2022.2.4,119.01106565555759,
stimuli_position_map_1.csv,1.12027884624798,71.8991596638655,251.899159663866,medium,64.2198064728139,maps/google_map_1.png,82.3206468089484,objects/1/1_79.jpg,0,outdoors,Bird_Falcon.jpg,0,0,0,0,0,21,21,21,,,,,,,,,,,,,,,,,,,,,513.055200500181,513.6641424000263,514.0553115000948,514.5553010001313,515.0553309000097,515.5555434001144,516.0474561001174,516.5472030001692,517.1826930001844,517.1826930001844,518.5722726001404,518.5722726001404,518.5722726001404,a,0.4824355999007821,519.0637684001122,519.0637684001122,519.0637684001122,520.0636432000902,520.0636432000902,520.0636432000902,513.6641424000263,,,,,992,2022-11-28_09h10.24.449,test3,2022.2.4,119.01106565555759,
stimuli_position_map_1.csv,0.458964169780608,71.8991596638655,251.899159663866,low,26.3100479492068,maps/google_map_1.png,44.4108882853413,objects/1/1_52.jpg,0,indoors,Tray_Wooden.jpg,0,0,0,0,0,22,22,22,,,,,,,,,,,,,,,,,,,,,520.0636432000902,520.6765833999962,521.0554731001612,521.5552956000902,522.0554002001882,522.5553791001439,523.0554114000406,523.5554496000987,524.1898598000407,524.1898598000407,525.5805510999635,525.5805510999635,525.5805510999635,l,0.4828453999944031,526.0722380999941,526.0722380999941,526.0722380999941,527.0719612999819,527.0719612999819,527.0719612999819,520.6765833999962,,,,,992,2022-11-28_09h10.24.449,test3,2022.2.4,119.01106565555759,
stimuli_position_map_1.csv,0.486052985371945,71.8991596638655,251.899159663866,medium,27.8629099894745,maps/google_map_1.png,45.963750325609,objects/1/1_39.jpg,0,outdoors,SpiderWeb.jpg,0,0,0,0,0,23,23,23,,,,,,,,,,,,,,,,,,,,,527.0719612999819,527.6849075001664,528.0718941001687,528.5727664001752,529.0721730000805,529.5723539001774,530.0723530000541,530.5723791001365,531.212798899971,531.212798899971,532.5890177001711,532.5890177001711,532.5890177001711,a,1.2959131998941302,533.8973282000516,533.8973282000516,533.8973282000516,534.8972956000362,534.8972956000362,534.8972956000362,527.6849075001664,,,,,992,2022-11-28_09h10.24.449,test3,2022.2.4,119.01106565555759,
stimuli_position_map_1.csv,5.17959802888803,71.8991596638655,251.899159663866,low,296.91963222925,maps/google_map_1.png,44.9795274346153,objects/1/1_69.jpg,0,indoors,Protractor.jpg,0,0,0,0,0,24,24,24,,,,,,,,,,,,,,,,,,,,,534.8972956000362,535.5083576000761,535.8972245999612,536.3973672001157,536.8972226001788,537.3973384001292,537.8973139000591,538.3973675000016,539.0328383001033,539.0328383001033,540.4141059000976,540.4141059000976,540.4141059000976,l,1.4943602997809649,541.9222874999978,541.9222874999978,541.9222874999978,542.9223259000573,542.9223259000573,542.9223259000573,535.5083576000761,,,,,992,2022-11-28_09h10.24.449,test3,2022.2.4,119.01106565555759,
stimuli_position_map_1.csv,5.6341674744704,71.8991596638655,251.899159663866,low,322.97775331359,maps/google_map_1.png,18.9214063502755,objects/1/1_90.jpg,1,outdoors,TreeHouse.jpg,0,0,0,0,0,25,25,25,,,,,,,,,,,,,,,,,,,,,542.9223259000573,543.534651900176,543.9223826001398,544.4224159000441,544.922468099976,545.42248570011,545.9223187000025,546.422977700131,547.0467767000664,547.0467767000664,548.4388344001491,548.4388344001491,548.4388344001491,a,0.37941939989104867,548.8308155001141,548.8308155001141,548.8308155001141,549.8308392001782,549.8308392001782,549.8308392001782,543.534651900176,,,,,992,2022-11-28_09h10.24.449,test3,2022.2.4,119.01106565555759,
stimuli_position_map_1.csv,4.49069841269841,251.899159663866,163.90756302521,singletons,257.428571428571,maps/google_map_1.png,None,objects/1/1_118.jpg,0,indoors,Dropper.jpg,0,0,0,0,0,26,26,26,,,,,,,,,,,,,,,,,,,,,549.8308392001782,550.4371858001687,550.8224146000575,551.3223935000133,551.8305415001232,552.3307470001746,552.8307023001835,553.3307307001669,553.9621449999977,553.9621449999977,555.3475107001141,555.3475107001141,555.3475107001141,l,2.505073999753222,557.864057400031,557.864057400031,557.864057400031,558.8642142000608,558.8642142000608,558.8642142000608,550.4371858001687,,,,,992,2022-11-28_09h10.24.449,test3,2022.2.4,119.01106565555759,
stimuli_position_map_1.csv,3.45666946311148,71.8991596638655,251.899159663866,high,198.153026547792,maps/google_map_1.png,143.746133116074,objects/1/1_119.jpg,0,outdoors,TailLight.jpg,0,0,0,0,0,27,27,27,,,,,,,,,,,,,,,,,,,,,558.8642142000608,559.4750865001697,559.8555741000455,560.3556994001847,560.8639750001021,561.3639881999698,561.8580188001506,562.3639359001536,562.9942285001744,562.9942285001744,564.3808176000603,564.3808176000603,564.3808176000603,a,2.2260913997888565,566.6225078001153,566.6225078001153,566.6225078001153,567.622488199966,567.622488199966,567.622488199966,559.4750865001697,,,,,992,2022-11-28_09h10.24.449,test3,2022.2.4,119.01106565555759,
stimuli_position_map_1.csv,2.8606005115145,71.8991596638655,251.899159663866,high,163.983468812933,maps/google_map_1.png,177.915690850932,objects/1/1_84.jpg,0,outdoors,RamAnimal.jpg,0,0,0,0,0,28,28,28,,,,,,,,,,,,,,,,,,,,,567.622488199966,568.2300526001491,568.6148163001053,569.1141684001777,569.6224948000163,570.1225823999848,570.6226369000506,571.1225421000272,571.7523173000664,571.7523173000664,573.1308415001258,573.1308415001258,573.1308415001258,a,0.2813331999350339,573.4225429999642,573.4225429999642,573.4225429999642,574.4225552000571,574.4225552000571,574.4225552000571,568.2300526001491,,,,,992,2022-11-28_09h10.24.449,test3,2022.2.4,119.01106565555759,
stimuli_position_map_1.csv,5.82053114853003,71.8991596638655,251.899159663866,low,333.661021253314,maps/google_map_1.png,8.23813841055176,objects/1/1_90.jpg,1,outdoors,TreeHouse.jpg,0,0,0,0,0,29,29,29,,,,,,,,,,,,,,,,,,,,,574.4225552000571,575.0318361001555,575.4140783001203,575.9142206001561,576.4142507000361,576.9142557000741,577.4153978000395,577.9226442000363,578.5503182001412,578.5503182001412,579.9393373001367,579.9393373001367,579.9393373001367,a,0.30031699989922345,580.2560130001511,580.2560130001511,580.2560130001511,581.2558808000758,581.2558808000758,581.2558808000758,575.0318361001555,,,,,992,2022-11-28_09h10.24.449,test3,2022.2.4,119.01106565555759,
stimuli_position_map_1.csv,5.78876171210714,71.8991596638655,251.899159663866,low,331.839843369199,maps/google_map_1.png,10.0593162946665,objects/1/1_76.jpg,0,indoors,CoffeePot.jpg,0,0,0,0,0,30,30,30,,,,,,,,,,,,,,,,,,,,,581.2558808000758,581.8696741999593,582.2556996000931,582.7558337000664,583.2558716000058,583.7556593001354,584.2558554001153,584.7558120000176,585.3807728001848,585.3807728001848,586.7725808001123,586.7725808001123,586.7725808001123,l,0.22527409973554313,587.0142010001,587.0142010001,587.0142010001,588.0141892000102,588.0141892000102,588.0141892000102,581.8696741999593,,,,,992,2022-11-28_09h10.24.449,test3,2022.2.4,119.01106565555759,
stimuli_position_map_1.csv,0.789928852218592,71.8991596638655,251.899159663866,medium,45.2825456685817,maps/google_map_1.png,63.3833860047162,objects/1/1_36.jpg,0,outdoors,Hay.jpg,0,0,0,0,0,31,31,31,,,,,,,,,,,,,,,,,,,,,588.0141892000102,588.6223883000202,589.0059253000654,589.505960599985,590.00611019996,590.5059440999757,591.005876300158,591.5059349001385,592.1457766001113,592.1457766001113,593.5311048000585,593.5311048000585,593.5311048000585,a,0.32323439978063107,593.8642709001433,593.8642709001433,593.8642709001433,594.8642771001905,594.8642771001905,594.8642771001905,588.6223883000202,,,,,992,2022-11-28_09h10.24.449,test3,2022.2.4,119.01106565555759,
stimuli_position_map_1.csv,5.5828699554077,71.8991596638655,251.899159663866,low,320.037131201715,maps/google_map_1.png,21.8620284621501,objects/2/2_38.jpg,1,outdoors,Megaphone.jpg,0,0,0,0,0,32,32,32,,,,,,,,,,,,,,,,,,,,,594.8642771001905,595.4748711001594,595.8643871999811,596.3642069001216,596.864207000006,597.3643935001455,597.8641983000562,598.364389100112,598.9869101999793,598.9869101999793,600.3811341000255,600.3811341000255,600.3811341000255,a,0.29556549969129264,600.6894641001709,600.6894641001709,600.6894641001709,601.6894575001206,601.6894575001206,601.6894575001206,595.4748711001594,,,,,992,2022-11-28_09h10.24.449,test3,2022.2.4,119.01106565555759,
stimuli_position_map_1.csv,1.37906478308972,71.8991596638655,251.899159663866,medium,79.054669094315,maps/google_map_1.png,97.1555094304494,objects/1/1_111.jpg,0,indoors,Card_TwoSpade.jpg,0,0,0,0,0,33,33,33,,,,,,,,,,,,,,,,,,,,,601.6894575001206,602.3020391999744,602.6813778001815,603.1813356999774,603.6812363001518,604.1816653001588,604.6811007000506,605.1807672001887,605.825590700144,605.825590700144,607.2062300001271,607.2062300001271,607.2062300001271,l,0.2418144999537617,607.456297900062,607.456297900062,607.456297900062,608.4587848000228,608.4587848000228,608.4587848000228,602.3020391999744,,,,,992,2022-11-28_09h10.24.449,test3,2022.2.4,119.01106565555759,
stimuli_position_map_1.csv,6.17893353171953,71.8991596638655,251.899159663866,low,354.206380799209,maps/google_map_1.png,12.3072211353433,objects/2/2_3.jpg,1,outdoors,ColumnMarble.jpg,0,0,0,0,0,34,34,34,,,,,,,,,,,,,,,,,,,,,608.4587848000228,609.0674018000718,609.4562087000813,609.9561282000504,610.4561640999746,610.9560069001745,611.4562364001758,611.9561925001908,612.5810650000349,612.5810650000349,613.9728256000672,613.9728256000672,613.9728256000672,a,0.3847413999028504,614.3728189000394,614.3728189000394,614.3728189000394,615.3727280001622,615.3727280001622,615.3727280001622,,,,,,992,2022-11-28_09h10.24.449,test3,2022.2.4,119.01106565555759,
stimuli_position_map_1.csv,4.91171055088702,161.899159663866,227.260504201681,singletons,281.563025210084,maps/google_map_1.png,None,objects/1/1_8.jpg,0,outdoors,Bus_DoubleDecker.jpg,0,0,0,0,0,35,35,35,,,,,,,,,,,,,,,,,,,,,615.3727280001622,615.9818443001714,616.3643436001148,616.8642993001267,617.364380300045,617.8644004000816,618.3643996999599,618.8644819001202,619.5058493001852,619.5058493001852,620.8895726001356,620.8895726001356,620.8895726001356,a,0.31725879991427064,621.2227919001598,621.2227919001598,621.2227919001598,622.2227217000909,622.2227217000909,622.2227217000909,615.9818443001714,,,,,992,2022-11-28_09h10.24.449,test3,2022.2.4,119.01106565555759,
stimuli_position_map_1.csv,3.19435706630714,71.8991596638655,251.899159663866,high,183.116010170473,maps/google_map_1.png,158.783149493393,objects/1/1_86.jpg,0,indoors,Keys_Bunch.jpg,0,0,0,0,0,36,36,36,,,,,,,,,,,,,,,,,,,,,622.2227217000909,622.8323024001438,623.2143988001626,623.7144147001673,624.2145979001652,624.7143741999753,625.2144421001431,625.7145879000891,626.3578190000262,626.3578190000262,627.7396339999977,627.7396339999977,627.7396339999977,l,0.39224359998479486,628.148085599998,628.148085599998,628.148085599998,629.147877600044,629.147877600044,629.147877600044,622.8323024001438,,,,,992,2022-11-28_09h10.24.449,test3,2022.2.4,119.01106565555759,
stimuli_position_map_1.csv,6.22574895172022,71.8991596638655,251.899159663866,low,356.890067296063,maps/google_map_1.png,14.9909076321979,objects/1/1_41.jpg,0,outdoors,Clam.jpg,0,0,0,0,0,37,37,37,,,,,,,,,,,,,,,,,,,,,629.147877600044,629.7538153000642,630.1479001999833,630.6484249001369,631.1480008000508,631.6479082000442,632.1478278001305,632.6478034001775,633.2736716000363,633.2736716000363,634.6645341000985,634.6645341000985,634.6645341000985,l,0.24610859993845224,634.9230931000784,634.9230931000784,634.9230931000784,635.9229226000607,635.9229226000607,635.9229226000607,629.7538153000642,,,,,992,2022-11-28_09h10.24.449,test3,2022.2.4,119.01106565555759,
stimuli_position_map_1.csv,0.0869112558844378,71.8991596638655,251.899159663866,low,4.98217390420344,maps/google_map_1.png,23.0830142403379,objects/1/1_109.jpg,0,indoors,FloppyDisk.jpg,0,0,0,0,0,38,38,38,,,,,,,,,,,,,,,,,,,,,635.9229226000607,636.5355883999728,636.9146704000887,637.4146512001753,637.914653000189,638.4146952000447,638.9147887001745,639.4148095001001,640.0521905000787,640.0521905000787,641.4313815999776,641.4313815999776,641.4313815999776,l,0.2830487999599427,641.7230628000107,641.7230628000107,641.7230628000107,642.7231785000768,642.7231785000768,642.7231785000768,636.5355883999728,,,,,992,2022-11-28_09h10.24.449,test3,2022.2.4,119.01106565555759,
stimuli_position_map_1.csv,5.9109459929667,71.8991596638655,251.899159663866,low,338.844037813377,maps/google_map_1.png,3.05512185048809,objects/1/1_61.jpg,1,indoors,Bottle_Baby.jpg,0,0,0,0,0,39,39,39,,,,,,,,,,,,,,,,,,,,,642.7231785000768,643.3295785000082,643.722953400109,644.2239139000885,644.722885100171,645.2229321000632,645.723069100175,646.2229318001773,646.853146100184,646.853146100184,648.2396144999657,648.2396144999657,648.2396144999657,l,0.3033600999042392,648.5565442000516,648.5565442000516,648.5565442000516,649.5564637000207,649.5564637000207,649.5564637000207,643.3295785000082,,,,,992,2022-11-28_09h10.24.449,test3,2022.2.4,119.01106565555759,
stimuli_position_map_1.csv,1.06997478991597,161.899159663866,76.4201680672269,singletons,61.3361344537815,maps/google_map_1.png,None,objects/1/1_61.jpg,1,indoors,Bottle_Baby.jpg,0,0,0,0,0,40,40,40,,,,,,,,,,,,,,,,,,,,,649.5564637000207,650.1631978000514,650.5564487001393,651.0563974000979,651.5566102999728,652.0565351000987,652.5565012001898,653.0571838000324,653.6842005001381,653.6842005001381,655.0730636001099,655.0730636001099,655.0730636001099,l,0.12159359967336059,655.2065115000587,655.2065115000587,655.2065115000587,656.2065731000621,656.2065731000621,656.2065731000621,650.1631978000514,,,,,992,2022-11-28_09h10.24.449,test3,2022.2.4,119.01106565555759,
stimuli_position_map_1.csv,1.80674603174603,341.899159663866,350.949579831933,singletons,103.571428571429,maps/google_map_1.png,None,objects/1/1_139.jpg,0,outdoors,TubeRing.jpg,0,0,0,0,0,41,41,41,,,,,,,,,,,,,,,,,,,,,656.2065731000621,656.8172224001028,657.2065950001124,657.7065191001166,658.2063694000244,658.7065674001351,659.2067511000205,659.7067707001697,660.3402311999816,660.3402311999816,661.7232860999648,661.7232860999648,661.7232860999648,a,0.42292139981873333,662.1563446000218,662.1563446000218,662.1563446000218,663.1566435000859,663.1566435000859,663.1566435000859,656.8172224001028,,,,,992,2022-11-28_09h10.24.449,test3,2022.2.4,119.01106565555759,
stimuli_position_map_1.csv,3.07446109398633,71.8991596638655,251.899159663866,high,176.242992648898,maps/google_map_1.png,165.656167014968,objects/1/1_130.jpg,0,indoors,PillBottle_Spilled.jpg,0,0,0,0,0,42,42,42,,,,,,,,,,,,,,,,,,,,,663.1566435000859,663.7662439001724,664.1481355000287,664.6482967999764,665.1484296000563,665.6482700000051,666.1482431001496,666.6481888000853,667.2873372000176,667.2873372000176,668.6734253000468,668.6734253000468,668.6734253000468,l,0.2832911997102201,668.9650042001158,668.9650042001158,668.9650042001158,669.9648570001591,669.9648570001591,669.9648570001591,663.7662439001724,,,,,992,2022-11-28_09h10.24.449,test3,2022.2.4,119.01106565555759,
stimuli_position_map_1.csv,2.78366510420471,71.8991596638655,251.899159663866,high,159.573158839761,maps/google_map_1.png,177.673999175895,objects/1/1_47.jpg,0,outdoors,Caribou.jpg,0,0,0,0,0,43,43,43,,,,,,,,,,,,,,,,,,,,,669.9648570001591,670.574072800111,670.9649590000045,671.4647550000809,671.9649869001005,672.4649751000106,672.965112300124,673.4651272001211,674.0975069000851,674.0975069000851,675.4814365999773,675.4814365999773,675.4814365999773,a,0.2720952997915447,675.7650107000954,675.7650107000954,675.7650107000954,676.7650433001108,676.7650433001108,676.7650433001108,670.574072800111,,,,,992,2022-11-28_09h10.24.449,test3,2022.2.4,119.01106565555759,
stimuli_position_map_1.csv,5.93195336185991,71.8991596638655,251.899159663866,low,340.048281890059,maps/google_map_1.png,1.85087777380689,objects/1/1_59.jpg,0,indoors,Candy_Toffee.jpg,0,0,0,0,0,44,44,44,,,,,,,,,,,,,,,,,,,,,676.7650433001108,677.371560000116,677.7566168999765,678.2568097000476,678.7650393000804,679.2651672000065,679.765108200023,680.26517160004,680.9003643000033,680.9003643000033,682.2818754001055,682.2818754001055,682.2818754001055,l,0.3476293997373432,682.6398963001557,682.6398963001557,682.6398963001557,683.6399071000051,683.6399071000051,683.6399071000051,677.371560000116,,,,,992,2022-11-28_09h10.24.449,test3,2022.2.4,119.01106565555759,
stimuli_position_map_1.csv,5.70597886186679,71.8991596638655,251.899159663866,low,327.094329661153,maps/google_map_1.png,14.8048300027121,objects/1/1_83.jpg,0,indoors,Chair_Office.jpg,0,0,0,0,0,45,45,45,,,,,,,,,,,,,,,,,,,,,683.6399071000051,684.2514418000355,684.6400603000075,685.140092600137,685.639906299999,686.1399775999598,686.6400505001657,687.140183800133,687.778327899985,687.778327899985,689.1568346000277,689.1568346000277,689.1568346000277,l,0.2601861997973174,689.4316342000384,689.4316342000384,689.4316342000384,690.4317285001744,690.4317285001744,690.4317285001744,684.2514418000355,,,,,992,2022-11-28_09h10.24.449,test3,2022.2.4,119.01106565555759,
stimuli_position_map_1.csv,0.222940635853876,71.8991596638655,251.899159663866,low,12.7800364502222,maps/google_map_1.png,30.8808767863566,objects/1/1_34.jpg,0,indoors,Corkscrew.jpg,0,0,0,0,0,46,46,46,,,,,,,,,,,,,,,,,,,,,690.4317285001744,691.0415276000276,691.4233948001638,691.9232911001891,692.4232895001769,692.9233350001741,693.423297900008,693.9233385000844,694.5562150999904,694.5562150999904,695.9485361000989,695.9485361000989,695.9485361000989,l,0.31214929977431893,696.2733760999981,696.2733760999981,696.2733760999981,697.2739275000058,697.2739275000058,697.2739275000058,691.0415276000276,,,,,992,2022-11-28_09h10.24.449,test3,2022.2.4,119.01106565555759,
stimuli_position_map_1.csv,3.38554154995331,251.899159663866,172.957983193277,singletons,194.075630252101,maps/google_map_1.png,None,objects/2/2_3.jpg,1,outdoors,ColumnMarble.jpg,0,0,0,0,0,47,47,47,,,,,,,,,,,,,,,,,,,,,697.2739275000058,697.8828066000715,698.2734646999743,698.7732555000111,699.2734082001261,699.7734115000349,700.273315800121,700.7732909000479,701.3991700001061,701.3991700001061,702.7901489001233,702.7901489001233,702.7901489001233,a,0.3875317999627441,703.1899975000415,703.1899975000415,703.1899975000415,704.190291200066,704.190291200066,704.190291200066,697.8828066000715,,,,,992,2022-11-28_09h10.24.449,test3,2022.2.4,119.01106565555759,
stimuli_position_map_1.csv,1.4577243972676,71.8991596638655,251.899159663866,medium,83.5638189516461,maps/google_map_1.png,101.664659287781,objects/1/1_75.jpg,0,outdoors,Can_OilSpout.jpg,0,0,0,0,0,48,48,48,,,,,,,,,,,,,,,,,,,,,704.190291200066,704.7968680001795,705.1818199001718,705.6818429001141,706.1817342999857,706.6816490001511,707.1817519001197,707.6818440000061,708.3178284000605,708.3178284000605,709.7067613000982,709.7067613000982,709.7067613000982,l,5.041595799848437,714.756855300162,714.756855300162,714.756855300162,715.7567894000094,715.7567894000094,715.7567894000094,704.7968680001795,,,,,992,2022-11-28_09h10.24.449,test3,2022.2.4,119.01106565555759,
stimuli_position_map_1.csv,0.400986152362313,71.8991596638655,251.899159663866,low,22.9864673328715,maps/google_map_1.png,41.0873076690059,objects/1/1_87.jpg,1,indoors,MouthGuard.jpg,0,0,0,0,0,49,49,49,,,,,,,,,,,,,,,,,,,,,715.7567894000094,716.3688334999606,716.7567843999714,717.2569615000393,717.7570124000777,718.2567992000841,718.7569234000985,719.2568971000146,719.8806525000837,719.8806525000837,721.273693199968,721.273693199968,721.273693199968,l,0.2564871998038143,721.5403517000377,721.5403517000377,721.5403517000377,722.5402450000402,722.5402450000402,722.5402450000402,716.3688334999606,,,,,992,2022-11-28_09h10.24.449,test3,2022.2.4,119.01106565555759,
stimuli_position_map_1.csv,1.49098692810458,161.899159663866,172.957983193277,singletons,85.4705882352941,maps/google_map_1.png,None,objects/1/1_40.jpg,0,outdoors,Dog_SaintBernard.jpg,0,0,0,0,0,50,50,50,,,,,,,,,,,,,,,,,,,,,722.5402450000402,723.1489713999908,723.5318801000249,724.0319787000772,724.5319896000437,725.0320562999696,725.5320366001688,726.0320433999877,726.6747499001212,726.6747499001212,728.0570924000349,728.0570924000349,728.0570924000349,a,0.30632720002904534,728.3737793001346,728.3737793001346,728.3737793001346,729.3736605001613,729.3736605001613,729.3736605001613,723.1489713999908,,,,,992,2022-11-28_09h10.24.449,test3,2022.2.4,119.01106565555759,
stimuli_position_map_1.csv,5.90101231494134,71.8991596638655,251.899159663866,low,338.27459130237,maps/google_map_1.png,3.62456836149607,objects/2/2_3.jpg,1,outdoors,ColumnMarble.jpg,0,0,0,0,0,51,51,51,,,,,,,,,,,,,,,,,,,,,729.3736605001613,729.9819726999849,730.373613800155,730.8737093000673,731.3736752001569,731.8738320001867,732.3736278000288,732.8744690001477,733.4996573000681,733.4996573000681,734.8905222001486,734.8905222001486,734.8905222001486,a,0.3756448000203818,735.2819632000756,735.2819632000756,735.2819632000756,736.2819634000771,736.2819634000771,736.2819634000771,729.9819726999849,,,,,992,2022-11-28_09h10.24.449,test3,2022.2.4,119.01106565555759,
stimuli_position_map_1.csv,3.49079458450047,251.899159663866,326.81512605042,singletons,200.109243697479,maps/google_map_1.png,None,objects/2/2_38.jpg,1,outdoors,Megaphone.jpg,0,0,0,0,0,52,52,52,,,,,,,,,,,,,,,,,,,,,736.2819634000771,736.8889240999706,737.2736697001383,737.7736695001367,738.2819753000513,738.7819434001576,739.2820455001201,739.7821766000707,740.4095479999669,740.4095479999669,741.7988422999624,741.7988422999624,741.7988422999624,a,0.32233639992773533,742.1321763000451,742.1321763000451,742.1321763000451,743.1319499001838,743.1319499001838,743.1319499001838,736.8889240999706,,,,,992,2022-11-28_09h10.24.449,test3,2022.2.4,119.01106565555759,
stimuli_position_map_1.csv,1.48698540314,71.8991596638655,251.899159663866,medium,85.2412014538853,maps/google_map_1.png,103.34204179002,objects/1/1_132.jpg,0,indoors,DentalFloss.jpg,0,0,0,0,0,53,53,53,,,,,,,,,,,,,,,,,,,,,743.1319499001838,743.7434326000512,744.1237185001373,744.6239453000017,745.1239398000762,745.6236926000565,746.1239082000684,746.6237635000143,747.2708088001236,747.2708088001236,748.6488545001484,748.6488545001484,748.6488545001484,l,0.7087637998629361,749.3739950000308,749.3739950000308,749.3739950000308,750.3738049999811,750.3738049999811,750.3738049999811,743.7434326000512,,,,,992,2022-11-28_09h10.24.449,test3,2022.2.4,119.01106565555759,
stimuli_position_map_1.csv,3.60822025187446,71.8991596638655,251.899159663866,high,206.840651381338,maps/google_map_1.png,135.058508282527,objects/1/1_3.jpg,0,indoors,Mug_Beer.jpg,0,0,0,0,0,54,54,54,,,,,,,,,,,,,,,,,,,,,750.3738049999811,750.9812294000294,751.3739475000184,751.8738575000316,752.3655858000275,752.8656786000356,753.3657409001607,753.8657670000102,754.5053447000682,754.5053447000682,755.8905317999888,755.8905317999888,755.8905317999888,l,0.3816076999064535,756.2822485000361,756.2822485000361,756.2822485000361,757.2820456000045,757.2820456000045,757.2820456000045,750.9812294000294,,,,,992,2022-11-28_09h10.24.449,test3,2022.2.4,119.01106565555759,
stimuli_position_map_1.csv,0.0782911701018714,71.8991596638655,251.899159663866,low,4.48802885934294,maps/google_map_1.png,22.5888691954774,objects/1/1_121.jpg,0,outdoors,Trowel.jpg,0,0,0,0,0,55,55,55,,,,,,,,,,,,,,,,,,,,,757.2820456000045,757.8897937000729,758.2820435999893,758.7820135999937,759.2738529001363,759.774961899966,760.282243499998,760.7822175000329,761.414664400043,761.414664400043,762.7989452001639,762.7989452001639,762.7989452001639,a,0.244264799868688,763.0572886001319,763.0572886001319,763.0572886001319,764.0569847000297,764.0569847000297,764.0569847000297,757.8897937000729,,,,,992,2022-11-28_09h10.24.449,test3,2022.2.4,119.01106565555759,
stimuli_position_map_1.csv,2.2555394032634,71.8991596638655,251.899159663866,high,129.298437129749,maps/google_map_1.png,147.399277465884,objects/1/1_93.jpg,0,outdoors,Bird_Toucan.jpg,0,0,0,0,0,56,56,56,,,,,,,,,,,,,,,,,,,,,764.0569847000297,764.6648285000119,765.04868610017,765.5487737001386,766.0489529001061,766.5489414001349,767.048861599993,767.5489837999921,768.1857086999808,768.1857086999808,769.5741076001432,769.5741076001432,769.5741076001432,a,0.2734643998555839,769.8572677001357,769.8572677001357,769.8572677001357,770.8574268000666,770.8574268000666,770.8574268000666,764.6648285000119,,,,,992,2022-11-28_09h10.24.449,test3,2022.2.4,119.01106565555759,
stimuli_position_map_1.csv,5.85898786181139,251.899159663866,136.756302521008,singletons,335.865546218487,maps/google_map_1.png,None,objects/2/2_3.jpg,1,outdoors,ColumnMarble.jpg,0,0,0,0,0,57,57,57,,,,,,,,,,,,,,,,,,,,,770.8574268000666,771.4682805000339,771.8574137000833,772.3573837000877,772.8574229001533,773.3575469001662,773.8574246000499,774.3574998001568,774.9891545001883,774.9891545001883,776.3741485001519,776.3741485001519,776.3741485001519,a,0.41458239988423884,776.7990811001509,776.7990811001509,776.7990811001509,777.7991069999989,777.7991069999989,777.7991069999989,771.4682805000339,,,,,992,2022-11-28_09h10.24.449,test3,2022.2.4,119.01106565555759,
stimuli_position_map_1.csv,1.37751831985211,71.8991596638655,251.899159663866,medium,78.9660183354711,maps/google_map_1.png,97.0668586716056,objects/1/1_92.jpg,0,outdoors,Torpedo.jpg,0,0,0,0,0,58,58,58,,,,,,,,,,,,,,,,,,,,,777.7991069999989,778.406547000166,778.7990796000231,779.2991088000126,779.7990083000623,780.299189500045,780.7992180001456,781.2990623000078,781.9312663001474,781.9312663001474,783.3156936999876,783.3156936999876,783.3156936999876,a,0.28617229987867177,783.615981800016,783.615981800016,783.615981800016,784.6157484999858,784.6157484999858,784.6157484999858,778.406547000166,,,,,992,2022-11-28_09h10.24.449,test3,2022.2.4,119.01106565555759,
stimuli_position_map_1.csv,5.74987040046224,71.8991596638655,251.899159663866,low,329.610405122039,maps/google_map_1.png,12.2887545418264,objects/1/1_90.jpg,1,outdoors,TreeHouse.jpg,0,0,0,0,0,59,59,59,,,,,,,,,,,,,,,,,,,,,784.6157484999858,785.2327976000961,785.6158051001839,786.1156085000839,786.6157323000953,787.1157121001743,787.6158881001174,788.1159503001254,788.7375570000149,788.7375570000149,790.132489999989,790.132489999989,790.132489999989,a,0.4137862997595221,790.5576001000591,790.5576001000591,790.5576001000591,791.5573136999737,791.5573136999737,791.5573136999737,785.2327976000961,,,,,992,2022-11-28_09h10.24.449,test3,2022.2.4,119.01106565555759,
stimuli_position_map_1.csv,1.17522782446312,161.899159663866,338.882352941176,singletons,67.3697478991597,maps/google_map_1.png,None,objects/1/1_25.jpg,0,indoors,ClothRed.jpg,0,0,0,0,0,60,60,60,,,,,,,,,,,,,,,,,,,,,791.5573136999737,792.1654569001403,792.557613100158,793.057666100096,793.5575854000635,794.0577017001342,794.5574490001891,795.0581459000241,795.6915137001779,795.6915137001779,797.074097200064,797.074097200064,797.074097200064,l,0.4693035997916013,797.5574328000657,797.5574328000657,797.5574328000657,798.5574952000752,798.5574952000752,798.5574952000752,792.1654569001403,,,,,992,2022-11-28_09h10.24.449,test3,2022.2.4,119.01106565555759,
stimuli_position_map_1.csv,5.9246299034903,71.8991596638655,251.899159663866,low,339.628465805177,maps/google_map_1.png,2.27069385868888,objects/1/1_135.jpg,0,outdoors,SatelliteDish.jpg,0,0,0,0,0,61,61,61,,,,,,,,,,,,,,,,,,,,,798.5574952000752,799.169032300124,799.5572979999706,800.057516500121,800.5575608999934,801.0576532999985,801.5574831999838,802.0576247000135,802.6911381999962,802.6911381999962,804.0658863000572,804.0658863000572,804.0658863000572,a,0.24730529985390604,804.324323200155,804.324323200155,804.324323200155,805.3243569000624,805.3243569000624,805.3243569000624,799.169032300124,,,,,992,2022-11-28_09h10.24.449,test3,2022.2.4,119.01106565555759,
stimuli_position_map_1.csv,2.22977907004433,71.8991596638655,251.899159663866,high,127.821730129929,maps/google_map_1.png,145.922570466064,objects/1/1_5.jpg,0,outdoors,Umbrella_Retractable.jpg,0,0,0,0,0,62,62,62,,,,,,,,,,,,,,,,,,,,,805.3243569000624,805.9322891000193,806.3243030000012,806.8242588001303,807.3160410001874,807.8159888000228,808.3159776001703,808.8159178001806,809.4531282000244,809.4531282000244,810.8410653001629,810.8410653001629,810.8410653001629,l,0.310167099814862,811.1659442000091,811.1659442000091,811.1659442000091,812.1656196999829,812.1656196999829,812.1656196999829,805.9322891000193,,,,,992,2022-11-28_09h10.24.449,test3,2022.2.4,119.01106565555759,
stimuli_position_map_1.csv,5.99860062387725,71.8991596638655,251.899159663866,low,343.868825572581,maps/google_map_1.png,1.96966590871582,objects/1/1_13.jpg,0,indoors,Bagel.jpg,0,0,0,0,0,63,63,63,,,,,,,,,,,,,,,,,,,,,812.1656196999829,812.7737485000398,813.1656592001673,813.6660182999913,814.1658656001091,814.6661235000938,815.1577647000086,815.6577405000571,816.3007818001788,816.3007818001788,817.6825701000635,817.6825701000635,817.6825701000635,l,0.3077466997783631,817.9993704999797,817.9993704999797,817.9993704999797,818.9991594001185,818.9991594001185,818.9991594001185,812.7737485000398,,,,,992,2022-11-28_09h10.24.449,test3,2022.2.4,119.01106565555759,
stimuli_position_map_1.csv,6.22893896519562,71.8991596638655,251.899159663866,low,357.072934310577,maps/google_map_1.png,15.1737746467111,objects/1/1_67.jpg,0,indoors,Stamp.jpg,0,0,0,0,0,64,64,64,,,,,,,,,,,,,,,,,,,,,818.9991594001185,819.6115556000732,819.9910201001912,820.4911067001522,820.9991908001248,821.4992278001737,821.9909651000053,822.4910804000683,823.1381481001154,823.1381481001154,824.5160162001848,824.5160162001848,824.5160162001848,l,0.25893949973396957,824.790962500032,824.790962500032,824.790962500032,825.7910050000064,825.7910050000064,825.7910050000064,819.6115556000732,,,,,992,2022-11-28_09h10.24.449,test3,2022.2.4,119.01106565555759,
stimuli_position_map_1.csv,5.96029347512922,71.8991596638655,251.899159663866,low,341.672874370465,maps/google_map_1.png,0.226285293400448,objects/2/2_3.jpg,1,outdoors,ColumnMarble.jpg,0,0,0,0,0,65,65,65,,,,,,,,,,,,,,,,,,,,,825.7910050000064,826.3988791001029,826.7825702000409,827.2826036000624,827.7827135999687,828.2828429001383,828.7827708001714,829.2826249001082,829.914938500151,829.914938500151,831.3077943001408,831.3077943001408,831.3077943001408,a,0.09510999987833202,831.4161617001519,831.4161617001519,831.4161617001519,832.4161372000817,832.4161372000817,832.4161372000817,826.3988791001029,,,,,992,2022-11-28_09h10.24.449,test3,2022.2.4,119.01106565555759,
stimuli_position_map_1.csv,2.85927637721755,161.899159663866,311.731092436975,singletons,163.90756302521,maps/google_map_1.png,None,objects/1/1_82.jpg,0,outdoors,Oars.jpg,0,0,0,0,0,66,66,66,,,,,,,,,,,,,,,,,,,,,832.4161372000817,833.0222504001576,833.4162695000414,833.916131200036,834.4078385001048,834.9078204000834,835.4159737001173,835.9161427000072,836.5440940000117,836.5440940000117,837.9326770000625,837.9326770000625,837.9326770000625,a,0.7161761000752449,838.6579112000763,838.6579112000763,838.6579112000763,839.658612200059,839.658612200059,839.658612200059,833.0222504001576,,,,,992,2022-11-28_09h10.24.449,test3,2022.2.4,119.01106565555759,
stimuli_position_map_1.csv,5.59613573700786,71.8991596638655,251.899159663866,low,320.797590019559,maps/google_map_1.png,21.1015696443065,objects/1/1_48.jpg,0,outdoors,Toy_Lizard.jpg,0,0,0,0,0,67,67,67,,,,,,,,,,,,,,,,,,,,,839.658612200059,840.2695363000967,840.6495405000169,841.1495786001906,841.6494534001686,842.1495293001644,842.649531400064,843.1496735999826,843.7882171999663,843.7882171999663,845.1744240999687,845.1744240999687,845.1744240999687,a,0.7321348998229951,845.9163345000707,845.9163345000707,845.9163345000707,846.9160825000145,846.9160825000145,846.9160825000145,,,,,,992,2022-11-28_09h10.24.449,test3,2022.2.4,119.01106565555759,
stimuli_position_map_1.csv,6.21144708871491,71.8991596638655,251.899159663866,low,356.070215276651,maps/google_map_1.png,14.1710556127855,objects/2/2_3.jpg,1,outdoors,ColumnMarble.jpg,0,0,0,0,0,68,68,68,,,,,,,,,,,,,,,,,,,,,846.9160825000145,847.5224342001602,847.9162532000337,848.4160857000388,848.9162606999744,849.4162771999836,849.9163948001806,850.4164362000301,851.0397340001073,851.0397340001073,852.4330172999762,852.4330172999762,852.4330172999762,a,0.5275359000079334,852.9744516001083,852.9744516001083,852.9744516001083,853.9745155000128,853.9745155000128,853.9745155000128,847.5224342001602,,,,,992,2022-11-28_09h10.24.449,test3,2022.2.4,119.01106565555759,
stimuli_position_map_1.csv,1.25459332072541,71.8991596638655,251.899159663866,medium,71.9193623345776,maps/google_map_1.png,90.020202670712,objects/1/1_22.jpg,0,indoors,Toy_BearBluePlushie.jpg,0,0,0,0,0,69,69,69,,,,,,,,,,,,,,,,,,,,,853.9745155000128,854.5835219,854.974742700113,855.4744933999609,855.9745696999598,856.4747685000766,856.9747646001633,857.4756932000164,858.1038949000649,858.1038949000649,859.4912231001072,859.4912231001072,859.4912231001072,l,0.9819058000575751,860.4831583001651,860.4831583001651,860.4831583001651,861.4829502999783,861.4829502999783,861.4829502999783,854.5835219,,,,,992,2022-11-28_09h10.24.449,test3,2022.2.4,119.01106565555759,
stimuli_position_map_1.csv,3.24686821143275,71.8991596638655,251.899159663866,high,186.126203203151,maps/google_map_1.png,155.772956460714,objects/1/1_137.jpg,0,indoors,CigarCase.jpg,0,0,0,0,0,70,70,70,,,,,,,,,,,,,,,,,,,,,861.4829502999783,862.0929783000611,862.4828574999701,862.9829043000937,863.4830611001235,863.9831203999929,864.4830619001295,864.9829061001074,865.6143144001253,865.6143144001253,866.9995134000201,866.9995134000201,866.9995134000201,a,0.6193295998964459,867.6331325001083,867.6331325001083,867.6331325001083,868.633215200156,868.633215200156,868.633215200156,862.0929783000611,,,,,992,2022-11-28_09h10.24.449,test3,2022.2.4,119.01106565555759,
stimuli_position_map_1.csv,6.0361459701246,71.8991596638655,251.899159663866,low,346.021106567652,maps/google_map_1.png,4.12194690378688,objects/1/1_133.jpg,0,outdoors,Bird_CanadianGoose.jpg,0,0,0,0,0,71,71,71,,,,,,,,,,,,,,,,,,,,,868.633215200156,869.2398155999836,869.6332831999753,870.133024699986,870.6245289000217,871.1246066000313,871.6330308001488,872.1331627999898,872.7640649999958,872.7640649999958,874.1497015000787,874.1497015000787,874.1497015000787,a,0.3187796997372061,874.4831697000191,874.4831697000191,874.4831697000191,875.4831872000359,875.4831872000359,875.4831872000359,869.2398155999836,,,,,992,2022-11-28_09h10.24.449,test3,2022.2.4,119.01106565555759,
stimuli_position_map_1.csv,0.0831957505742666,71.8991596638655,251.899159663866,low,4.76918315393885,maps/google_map_1.png,22.8700234900733,objects/1/1_42.jpg,0,indoors,Tambourine.jpg,0,0,0,0,0,72,72,72,,,,,,,,,,,,,,,,,,,,,875.4831872000359,876.0895905999932,876.4746135000605,876.9747860999778,877.474811400054,877.9746918000747,878.4745279001072,878.9748414000496,879.6103279001545,879.6103279001545,880.9997303001583,880.9997303001583,880.9997303001583,l,0.24912029993720353,881.2581988000311,881.2581988000311,881.2581988000311,882.2582372000907,882.2582372000907,882.2582372000907,876.0895905999932,,,,,992,2022-11-28_09h10.24.449,test3,2022.2.4,119.01106565555759,
stimuli_position_map_1.csv,5.5745165579535,71.8991596638655,251.899159663866,low,319.558274022812,maps/google_map_1.png,22.3408856410535,objects/2/2_54.jpg,1,indoors,Bottle_Oil.jpg,0,0,0,0,0,73,73,73,,,,,,,,,,,,,,,,,,,,,882.2582372000907,882.8659175999928,883.2497280000243,883.75007249997,884.258159799967,884.7583076001611,885.2498264999595,885.7500021001324,886.3903095000423,886.3903095000423,887.774768000003,887.774768000003,887.774768000003,l,0.8308111999649554,888.6177264000289,888.6177264000289,888.6177264000289,,,,882.8659175999928,,,,,992,2022-11-28_09h10.24.449,test3,2022.2.4,119.01106565555759,
stimuli_position_map_1.csv,2.14389346250232,71.8991596638655,251.899159663866,high,122.898351353636,maps/google_map_1.png,140.999191689771,objects/1/1_7.jpg,0,outdoors,Hottub.jpg,0,0,0,0,0,74,74,74,,,,,,,,,,,,,,,,,,,,,889.6248469999991,890.23494330002,890.6163151999936,891.1165942000225,891.616539800074,892.1165805000346,892.616457400145,893.116442500148,893.7495898001362,893.7495898001362,895.133412900148,895.133412900148,895.133412900148,a,0.208606599830091,895.3583031001035,895.3583031001035,895.3583031001035,896.3579953000881,896.3579953000881,896.3579953000881,,,,,,992,2022-11-28_09h10.24.449,test3,2022.2.4,119.01106565555759,
stimuli_position_map_1.csv,1.62150720692605,71.8991596638655,251.899159663866,medium,92.952642435251,maps/google_map_1.png,111.053482771385,objects/1/1_116.jpg,0,outdoors,Swing_Child.jpg,0,0,0,0,0,75,75,75,,,,,,,,,,,,,,,,,,,,,896.3579953000881,896.9654832000379,897.3582189001609,897.8582515001763,898.3582900001202,898.8583900001831,899.3498118000571,899.8498384000268,900.4907976000104,900.4907976000104,901.8666819001082,901.8666819001082,901.8666819001082,a,0.2669843998737633,902.1499368001241,902.1499368001241,902.1499368001241,903.1497923000716,903.1497923000716,903.1497923000716,896.9654832000379,,,,,992,2022-11-28_09h10.24.449,test3,2022.2.4,119.01106565555759,
stimuli_position_map_1.csv,5.88527342511297,71.8991596638655,251.899159663866,low,337.372361949151,maps/google_map_1.png,4.52679771471461,objects/1/1_20.jpg,0,indoors,Candy_Lozenge.jpg,0,0,0,0,0,76,76,76,,,,,,,,,,,,,,,,,,,,,903.1497923000716,903.7625522001181,904.1414340999909,904.6414393000305,905.1417710999958,905.6418264000677,906.1417469000444,906.6417857999913,907.2826008000411,907.2826008000411,908.666489199968,908.666489199968,908.666489199968,l,0.29745789989829063,908.9750328999944,908.9750328999944,908.9750328999944,909.9749822001904,909.9749822001904,909.9749822001904,903.7625522001181,,,,,992,2022-11-28_09h10.24.449,test3,2022.2.4,119.01106565555759,
stimuli_position_map_1.csv,5.60796138634428,71.8991596638655,251.899159663866,low,321.475493484704,maps/google_map_1.png,20.4236661791613,objects/1/1_120.jpg,0,outdoors,StreetSweeper.jpg,0,0,0,0,0,77,77,77,,,,,,,,,,,,,,,,,,,,,909.9749822001904,910.5908627000172,910.974893100094,911.475100300042,911.9750577001832,912.47499350016,912.9751663000789,913.474930500146,914.1125876000151,914.1125876000151,915.4915474001318,915.4915474001318,915.4915474001318,a,0.24794679996557534,915.7499856001232,915.7499856001232,915.7499856001232,916.7498540000524,916.7498540000524,916.7498540000524,910.5908627000172,,,,,992,2022-11-28_09h10.24.449,test3,2022.2.4,119.01106565555759,
stimuli_position_map_1.csv,1.81086620842006,71.8991596638655,251.899159663866,medium,103.807617043188,maps/google_map_1.png,121.908457379322,objects/1/1_126.jpg,0,outdoors,MeterElectric.jpg,0,0,0,0,0,78,78,78,,,,,,,,,,,,,,,,,,,,,916.7498540000524,917.3573464001529,917.7500097001903,918.2499920001719,918.7499852001201,919.250056500081,919.7500432999805,920.2500444001053,920.8873986001126,920.8873986001126,922.2669842001051,922.2669842001051,922.2669842001051,l,0.6541661999654025,922.9335851001088,922.9335851001088,922.9335851001088,923.9343038999941,923.9343038999941,923.9343038999941,917.3573464001529,,,,,992,2022-11-28_09h10.24.449,test3,2022.2.4,119.01106565555759,
stimuli_position_map_1.csv,2.11076610205594,71.8991596638655,251.899159663866,high,120.999330691105,maps/google_map_1.png,139.100171027239,objects/1/1_138.jpg,0,indoors,ProcessorFood_Old.jpg,0,0,0,0,0,79,79,79,,,,,,,,,,,,,,,,,,,,,923.9343038999941,924.5440756001044,924.9333812000696,925.4334032000042,925.93349700002,926.4332851001527,926.9335551999975,927.4335580000188,928.0648368000984,928.0648368000984,929.4501748001203,929.4501748001203,929.4501748001203,l,0.5004233999643475,929.9668688999955,929.9668688999955,929.9668688999955,930.9667627001181,930.9667627001181,930.9667627001181,924.5440756001044,,,,,992,2022-11-28_09h10.24.449,test3,2022.2.4,119.01106565555759,
stimuli_position_map_1.csv,0.854281142653355,71.8991596638655,251.899159663866,medium,48.9715304705745,maps/google_map_1.png,67.0723708067089,objects/1/1_114.jpg,0,outdoors,Backhoe.jpg,0,0,0,0,0,80,80,80,,,,,,,,,,,,,,,,,,,,,930.9667627001181,931.5732368000317,931.9584065000527,932.458621900063,932.9586563000921,933.4605074999854,933.9584526000544,934.4585398000199,935.0944239001255,935.0944239001255,936.4834965001792,936.4834965001792,936.4834965001792,a,0.45406549982726574,936.9500561000314,936.9500561000314,936.9500561000314,937.950226200046,937.950226200046,937.950226200046,931.5732368000317,,,,,992,2022-11-28_09h10.24.449,test3,2022.2.4,119.01106565555759,
stimuli_position_map_1.csv,4.28019234360411,251.899159663866,296.647058823529,singletons,245.361344537815,maps/google_map_1.png,None,objects/1/1_38.jpg,0,indoors,Bread_Melon.jpg,0,0,0,0,0,81,81,81,,,,,,,,,,,,,,,,,,,,,937.950226200046,938.5566065001767,938.9419462999795,939.441941200057,939.9418926001526,940.4419313000981,940.9420039001852,941.4419778001029,942.0818625001702,942.0818625001702,943.4669529001694,943.4669529001694,943.4669529001694,l,0.4537789998576045,943.9336227001622,943.9336227001622,943.9336227001622,944.9333882001229,944.9333882001229,944.9333882001229,938.5566065001767,,,,,992,2022-11-28_09h10.24.449,test3,2022.2.4,119.01106565555759,
stimuli_position_map_1.csv,5.92061548541514,71.8991596638655,251.899159663866,low,339.398339928256,maps/google_map_1.png,2.50081973560928,objects/1/1_98.jpg,0,indoors,Brush_BathBack.jpg,0,0,0,0,0,82,82,82,,,,,,,,,,,,,,,,,,,,,944.9333882001229,945.5406414000317,945.9334551000502,946.4334011001047,946.933680200018,947.4335909001529,947.9337987999897,948.433824100066,949.0583023000509,949.0583023000509,950.4509576000273,950.4509576000273,950.4509576000273,l,0.30566029995679855,950.7681663001422,950.7681663001422,950.7681663001422,,,,945.5406414000317,,,,,992,2022-11-28_09h10.24.449,test3,2022.2.4,119.01106565555759,
stimuli_position_map_1.csv,2.12250513538749,341.899159663866,209.159663865546,singletons,121.672268907563,maps/google_map_1.png,None,objects/2/2_54.jpg,1,indoors,Bottle_Oil.jpg,0,0,0,0,0,83,83,83,,,,,,,,,,,,,,,,,,,,,951.7754359000828,952.3815518000629,952.7669557000045,953.2670060000382,953.7668141999748,954.2668831001502,954.7670493000187,955.2670621001162,955.8914534000214,955.8914534000214,957.2837525000796,957.2837525000796,957.2837525000796,l,0.5571181999985129,957.8504755999893,957.8504755999893,957.8504755999893,958.8502810001373,958.8502810001373,958.8502810001373,,,,,,992,2022-11-28_09h10.24.449,test3,2022.2.4,119.01106565555759,
stimuli_position_map_1.csv,0.499869481705983,71.8991596638655,251.899159663866,medium,28.6549384417443,maps/google_map_1.png,46.7557787778787,objects/1/1_89.jpg,0,indoors,Cake_Wedding.jpg,0,0,0,0,0,84,84,84,,,,,,,,,,,,,,,,,,,,,958.8502810001373,959.4584511001594,959.8502766001038,960.3502168001141,960.8502955001313,961.3504964001477,961.8423719999846,962.3423904001247,962.9891785001382,962.9891785001382,964.3671224000864,964.3671224000864,964.3671224000864,l,0.32383379992097616,964.7003922001459,964.7003922001459,964.7003922001459,965.7002302999608,965.7002302999608,965.7002302999608,959.4584511001594,,,,,992,2022-11-28_09h10.24.449,test3,2022.2.4,119.01106565555759,
stimuli_position_map_1.csv,1.97643160818975,71.8991596638655,251.899159663866,medium,113.298627221069,maps/google_map_1.png,131.399467557203,objects/1/1_27.jpg,0,outdoors,Light_Traffic.jpg,0,0,0,0,0,85,85,85,,,,,,,,,,,,,,,,,,,,,965.7002302999608,966.3097682001535,966.6918148000259,967.192122500157,967.6920354999602,968.192167500034,968.7001690999605,969.2005337001756,969.8317738999613,969.8317738999613,971.2171088999603,971.2171088999603,971.2171088999603,a,0.40853989985771477,971.633703700034,971.633703700034,971.633703700034,972.6336409000214,972.6336409000214,972.6336409000214,966.3097682001535,,,,,992,2022-11-28_09h10.24.449,test3,2022.2.4,119.01106565555759,
stimuli_position_map_1.csv,6.08142455050314,71.8991596638655,251.899159663866,low,348.616693977887,maps/google_map_1.png,6.71753431402147,objects/1/1_63.jpg,0,outdoors,Inukshuk.jpg,0,0,0,0,0,86,86,86,,,,,,,,,,,,,,,,,,,,,972.6336409000214,973.2472141999751,973.6338045999873,974.1339227000717,974.6340098001529,975.1340081000235,975.6338361001108,976.1338400000241,976.7620673000347,976.7620673000347,978.1504347000737,978.1504347000737,978.1504347000737,a,0.49190949997864664,978.6506205999758,978.6506205999758,978.6506205999758,979.6503530000336,979.6503530000336,979.6503530000336,973.2472141999751,,,,,992,2022-11-28_09h10.24.449,test3,2022.2.4,119.01106565555759,
stimuli_position_map_1.csv,5.75798651216198,71.8991596638655,251.899159663866,low,330.075659932852,maps/google_map_1.png,11.8234997310134,objects/1/1_112.jpg,0,outdoors,Weathervane.jpg,0,0,0,0,0,87,87,87,,,,,,,,,,,,,,,,,,,,,979.6503530000336,980.2566957001109,980.6503680001479,981.1506392001174,981.642841400113,982.142296800157,982.6424637001473,983.1423794000875,983.7933273001108,983.7933273001108,985.1673897001892,985.1673897001892,985.1673897001892,a,0.3399241997394711,985.5172461001202,985.5172461001202,985.5172461001202,986.5172403000761,986.5172403000761,986.5172403000761,980.2566957001109,,,,,992,2022-11-28_09h10.24.449,test3,2022.2.4,119.01106565555759,
stimuli_position_map_1.csv,3.15159958956197,71.8991596638655,251.899159663866,high,180.664944624571,maps/google_map_1.png,161.234215039294,objects/1/1_72.jpg,0,indoors,Hat_Party.jpg,0,0,0,0,0,88,88,88,,,,,,,,,,,,,,,,,,,,,986.5172403000761,987.1253615999594,987.5170440000948,988.0170724000782,988.5171966999769,989.0172467001248,989.517312800046,990.0172245001886,990.6502823000774,990.6502823000774,992.0339230000973,992.0339230000973,992.0339230000973,l,0.24319529999047518,992.2923533001449,992.2923533001449,992.2923533001449,993.2924301000312,993.2924301000312,993.2924301000312,987.1253615999594,,,,,992,2022-11-28_09h10.24.449,test3,2022.2.4,119.01106565555759,
stimuli_position_map_1.csv,0.596336134453782,341.899159663866,49.2689075630252,singletons,34.1848739495798,maps/google_map_1.png,None,objects/2/2_54.jpg,1,indoors,Bottle_Oil.jpg,0,0,0,0,0,89,89,89,,,,,,,,,,,,,,,,,,,,,993.2924301000312,993.9028881001286,994.2839673000854,994.7841046000831,995.2840812001377,995.7840315999929,996.2841103000101,996.7841300000437,997.4136781999841,997.4136781999841,998.8089714001399,998.8089714001399,998.8089714001399,l,0.37226139986887574,999.1924150001723,999.1924150001723,999.1924150001723,1000.1923617001157,1000.1923617001157,1000.1923617001157,993.9028881001286,,,,,992,2022-11-28_09h10.24.449,test3,2022.2.4,119.01106565555759,
stimuli_position_map_1.csv,0.701589169000934,341.899159663866,269.495798319328,singletons,40.218487394958,maps/google_map_1.png,None,objects/1/1_87.jpg,1,indoors,MouthGuard.jpg,0,0,0,0,0,90,90,90,,,,,,,,,,,,,,,,,,,,,1000.1923617001157,1000.7998085999861,1001.1921622999944,1001.6923525000457,1002.192327799974,1002.6925003000069,1003.1923085001763,1003.6925486000255,1004.3132474999875,1004.3132474999875,1005.7089675001334,1005.7089675001334,1005.7089675001334,l,0.43503529974259436,1006.159027799964,1006.159027799964,1006.159027799964,1007.1590020000003,1007.1590020000003,1007.1590020000003,1000.7998085999861,,,,,992,2022-11-28_09h10.24.449,test3,2022.2.4,119.01106565555759,
stimuli_position_map_1.csv,2.1151913542011,71.8991596638655,251.899159663866,high,121.253007565668,maps/google_map_1.png,139.353847901802,objects/1/1_50.jpg,0,outdoors,GatedEntrance.jpg,0,0,0,0,0,91,91,91,,,,,,,,,,,,,,,,,,,,,1007.1590020000003,1007.76543150004,1008.150654700119,1008.6507782000117,1009.1589261000045,1009.6588451000862,1010.1590259000659,1010.6589053999633,1011.2871393000241,1011.2871393000241,1012.675813500071,1012.675813500071,1012.675813500071,a,0.3931829999201,1013.0842116000131,1013.0842116000131,1013.0842116000131,1014.0842132000253,1014.0842132000253,1014.0842132000253,1007.76543150004,,,,,992,2022-11-28_09h10.24.449,test3,2022.2.4,119.01106565555759,
stimuli_position_map_1.csv,5.84664382643996,71.8991596638655,251.899159663866,low,335.157926356431,maps/google_map_1.png,6.74123330743491,objects/1/1_100.jpg,0,indoors,Chair_BeanBag.jpg,0,0,0,0,0,92,92,92,,,,,,,,,,,,,,,,,,,,,1014.0842132000253,1014.6929995999672,1015.0839156000875,1015.5840615001507,1016.0841755000874,1016.583997100126,1017.084206599975,1017.5842950001825,1018.2208325001411,1018.2208325001411,1019.6010243000928,1019.6010243000928,1019.6010243000928,l,0.2418364998884499,1019.8591087001842,1019.8591087001842,1019.8591087001842,1020.8590582001489,1020.8590582001489,1020.8590582001489,1014.6929995999672,,,,,992,2022-11-28_09h10.24.449,test3,2022.2.4,119.01106565555759,
stimuli_position_map_1.csv,6.09539324633265,71.8991596638655,251.899159663866,low,349.417447241999,maps/google_map_1.png,7.51828757813325,objects/2/2_54.jpg,1,indoors,Bottle_Oil.jpg,0,0,0,0,0,93,93,93,,,,,,,,,,,,,,,,,,,,,1020.8590582001489,1021.467184800189,1021.850688100094,1022.3508984001819,1022.8592743000481,1023.3593131999951,1023.8511896000709,1024.350757600041,1024.9840179001912,1024.9840179001912,1026.375733199995,1026.375733199995,1026.375733199995,l,0.3387651997618377,1026.7259589000605,1026.7259589000605,1026.7259589000605,1027.7258705000859,1027.7258705000859,1027.7258705000859,1021.467184800189,,,,,992,2022-11-28_09h10.24.449,test3,2022.2.4,119.01106565555759,
stimuli_position_map_1.csv,2.53825212234297,71.8991596638655,251.899159663866,high,145.504898733037,maps/google_map_1.png,163.605739069171,objects/1/1_4.jpg,0,outdoors,Jet.jpg,0,0,0,0,0,94,94,94,,,,,,,,,,,,,,,,,,,,,1027.7258705000859,1028.335013500182,1028.7258819001727,1029.2258493001573,1029.7258607000113,1030.2258941000327,1030.7259337001015,1031.225857200101,1031.8563858000562,1031.8563858000562,1033.2427716001403,1033.2427716001403,1033.2427716001403,a,0.27188370004296303,1033.525966500165,1033.525966500165,1033.525966500165,1034.5260340999812,1034.5260340999812,1034.5260340999812,1028.335013500182,,,,,992,2022-11-28_09h10.24.449,test3,2022.2.4,119.01106565555759,
stimuli_position_map_1.csv,5.82733599412589,71.8991596638655,251.899159663866,low,334.051107943523,maps/google_map_1.png,7.84805172034299,objects/1/1_61.jpg,1,indoors,Bottle_Baby.jpg,0,0,0,0,0,95,95,95,,,,,,,,,,,,,,,,,,,,,1034.5260340999812,1035.1341487001628,1035.5258047999814,1036.025810400024,1036.525845900178,1037.0258408000227,1037.52594400011,1038.025968800066,1038.6492977000307,1038.6492977000307,1040.042583500035,1040.042583500035,1040.042583500035,l,0.4778041997924447,1040.5342554000672,1040.5342554000672,1040.5342554000672,1041.534388200147,1041.534388200147,1041.534388200147,1035.1341487001628,,,,,992,2022-11-28_09h10.24.449,test3,2022.2.4,119.01106565555759,
stimuli_position_map_1.csv,5.84035167694754,71.8991596638655,251.899159663866,low,334.797229888712,maps/google_map_1.png,7.10192977515327,objects/1/1_106.jpg,0,indoors,PotatoMasher_Grate.jpg,0,0,0,0,0,96,96,96,,,,,,,,,,,,,,,,,,,,,1041.534388200147,1042.1412915000692,1042.5343673001043,1043.034330100054,1043.5344102000818,1044.0341865001246,1044.5344261999708,1045.0343017000705,1045.6652158000506,1045.6652158000506,1047.0510256001726,1047.0510256001726,1047.0510256001726,l,0.21479589981026947,1047.2761089999694,1047.2761089999694,1047.2761089999694,1048.2759098000824,1048.2759098000824,1048.2759098000824,1042.1412915000692,,,,,992,2022-11-28_09h10.24.449,test3,2022.2.4,119.01106565555759,
stimuli_position_map_1.csv,3.13656060405906,71.8991596638655,251.899159663866,high,179.80283717536,maps/google_map_1.png,162.096322488505,objects/1/1_117.jpg,0,indoors,Broom_Short.jpg,0,0,0,0,0,97,97,97,,,,,,,,,,,,,,,,,,,,,1048.2759098000824,1048.887268600054,1049.275794000132,1049.7761197001673,1050.2761870000977,1050.7761633000337,1051.2760662999935,1051.7761381000746,1052.4079885000829,1052.4079885000829,1053.7925528001506,1053.7925528001506,1053.7925528001506,a,2.88283499982208,1056.6844514000695,1056.6844514000695,1056.6844514000695,1057.6844672001898,1057.6844672001898,1057.6844672001898,1048.887268600054,,,,,992,2022-11-28_09h10.24.449,test3,2022.2.4,119.01106565555759,
stimuli_position_map_1.csv,0.489666359295526,71.8991596638655,251.899159663866,medium,28.0700460742658,maps/google_map_1.png,46.1708864104003,objects/1/1_123.jpg,0,outdoors,Gazebo.jpg,0,0,0,0,0,98,98,98,,,,,,,,,,,,,,,,,,,,,1057.6844672001898,1058.2938302000985,1058.6842384000774,1059.1844083000906,1059.6844770000316,1060.1843650001101,1060.6762809001375,1061.1763238999993,1061.8191730000544,1061.8191730000544,1063.2013787000906,1063.2013787000906,1063.2013787000906,a,0.3633136998396367,1063.576166199986,1063.576166199986,1063.576166199986,1064.5759340000805,1064.5759340000805,1064.5759340000805,1058.2938302000985,,,,,992,2022-11-28_09h10.24.449,test3,2022.2.4,119.01106565555759,
stimuli_position_map_1.csv,0.861352401926571,71.8991596638655,251.899159663866,medium,49.3768892824149,maps/google_map_1.png,67.4777296185493,objects/1/1_32.jpg,0,outdoors,Truck_Box.jpg,0,0,0,0,0,99,99,99,,,,,,,,,,,,,,,,,,,,,1064.5759340000805,1065.1841083001345,1065.5760292999912,1066.0759611001704,1066.5676814999897,1067.0678604000714,1067.5762736999895,1068.0762680000626,1068.7039985000156,1068.7039985000156,1070.0844913001638,1070.0844913001638,1070.0844913001638,a,0.3568340998608619,1070.4512821000535,1070.4512821000535,1070.4512821000535,1071.4532219001558,1071.4532219001558,1071.4532219001558,1065.1841083001345,,,,,992,2022-11-28_09h10.24.449,test3,2022.2.4,119.01106565555759,
stimuli_position_map_1.csv,,,,,,,,,,,,0,0,0,0,,,,,,,,,,,,,,,,,,,,,,,,,,,,,,,,,,,,,,,,,,,,,,,1071.4532219001558,1071.4532219001558,space,235.87935829977505,992,2022-11-28_09h10.24.449,test3,2022.2.4,119.01106565555759,
stimuli_position_map_2.csv,0.630978256004724,148.319327731092,328.319327731092,low,36.1707280512262,maps/google_map_1.png,22.1485996798662,objects/1/1_12.jpg,0,outdoors,Van.jpg,0,1,1,1,0,0,0,0,,,,,,,,,,,,,,,,,,,,,1307.3558063001838,1307.9631325001828,1308.3445127999876,1308.8446548001375,1309.3446953000966,1309.8444731000345,1310.336249300046,1310.8363422001712,1311.478520900011,1311.478520900011,1312.8615071000531,1312.8615071000531,1312.8615071000531,a,0.400385599816218,1313.2780506000854,1313.2780506000854,1313.2780506000854,1314.278001600178,1314.278001600178,1314.278001600178,,,,,,992,2022-11-28_09h10.24.449,test3,2022.2.4,119.01106565555759,
stimuli_position_map_2.csv,3.49079458450047,58.3193277310925,221.226890756303,singletons,200.109243697479,maps/google_map_1.png,None,objects/1/1_15.jpg,0,indoors,Clip_Paper.jpg,0,1,1,1,0,1,1,1,,,,,,,,,,,,,,,,,,,,,1314.278001600178,1314.88481710013,1315.2780563000124,1315.7778074999806,1316.2781355001498,1316.7779677000362,1317.2781070000492,1317.7782847001217,1318.4164097001776,1318.4164097001776,1319.7946608001366,1319.7946608001366,1319.7946608001366,l,0.262263200012967,1320.0697056001518,1320.0697056001518,1320.0697056001518,1321.0696013001725,1321.0696013001725,1321.0696013001725,1314.88481710013,,,,,992,2022-11-28_09h10.24.449,test3,2022.2.4,119.01106565555759,
stimuli_position_map_2.csv,0.694860365402418,148.319327731092,328.319327731092,low,39.8327598001386,maps/google_map_1.png,18.4865679309538,objects/1/1_61.jpg,1,indoors,Bottle_Baby.jpg,0,1,1,1,0,2,2,2,,,,,,,,,,,,,,,,,,,,,1321.0696013001725,1321.676572700031,1322.0612574999686,1322.561235500034,1323.061395100085,1323.5614189000335,1324.061395399971,1324.5614635001402,1325.1896081999876,1325.1896081999876,1326.5864377000835,1326.5864377000835,1326.5864377000835,l,0.4098967998288572,1327.0115166001488,1327.0115166001488,1327.0115166001488,1328.0119374999776,1328.0119374999776,1328.0119374999776,1321.676572700031,,,,,992,2022-11-28_09h10.24.449,test3,2022.2.4,119.01106565555759,
stimuli_position_map_2.csv,0.934757696397727,148.319327731092,328.319327731092,low,53.5848360992328,maps/google_map_1.png,4.73449163185966,objects/1/1_61.jpg,1,indoors,Bottle_Baby.jpg,0,1,1,1,0,3,3,3,,,,,,,,,,,,,,,,,,,,,1328.0119374999776,1328.6275003000628,1329.0114007999655,1329.5112016999628,1330.0114408000372,1330.511405600002,1331.0113017000258,1331.5112827999983,1332.1363970001694,1332.1363970001694,1333.5279681000393,1333.5279681000393,1333.5279681000393,l,0.19954329985193908,1333.7365187001415,1333.7365187001415,1333.7365187001415,1334.7365485001355,1334.7365485001355,1334.7365485001355,1328.6275003000628,,,,,992,2022-11-28_09h10.24.449,test3,2022.2.4,119.01106565555759,
stimuli_position_map_2.csv,1.41428372826943,148.319327731092,328.319327731092,low,81.0735895186296,maps/google_map_1.png,22.7542617875372,objects/1/1_87.jpg,1,indoors,MouthGuard.jpg,0,1,1,1,0,4,4,4,,,,,,,,,,,,,,,,,,,,,1334.7365485001355,1335.349570499966,1335.728231200017,1336.2282623001374,1336.7363738000859,1337.236493700184,1337.7281321999617,1338.2282177000307,1338.8632279001176,1338.8632279001176,1340.2532598001417,1340.2532598001417,1340.2532598001417,l,0.3277672999538481,1340.5947002000175,1340.5947002000175,1340.5947002000175,1341.59487790009,1341.59487790009,1341.59487790009,1335.349570499966,,,,,992,2022-11-28_09h10.24.449,test3,2022.2.4,119.01106565555759,
stimuli_position_map_2.csv,1.01973337750663,148.319327731092,328.319327731092,low,58.456053487641,maps/google_map_1.png,0.136725756548586,objects/1/1_143.jpg,0,indoors,Radio_Vintage.jpg,0,1,1,1,0,5,5,5,,,,,,,,,,,,,,,,,,,,,1341.59487790009,1342.205428100191,1342.594712200109,1343.0949648001697,1343.594809500035,1344.095036700135,1344.5950929000974,1345.0950941999909,1345.7266162000597,1345.7266162000597,1347.1114003001712,1347.1114003001712,1347.1114003001712,l,0.3090943999122828,1347.4364361001644,1347.4364361001644,1347.4364361001644,1348.436495100148,1348.436495100148,1348.436495100148,1342.205428100191,,,,,992,2022-11-28_09h10.24.449,test3,2022.2.4,119.01106565555759,
stimuli_position_map_2.csv,1.31843651656477,148.319327731092,328.319327731092,low,75.579163369955,maps/google_map_1.png,17.2598356388626,objects/1/1_55.jpg,0,outdoors,CraneMachine.jpg,0,1,1,1,0,6,6,6,,,,,,,,,,,,,,,,,,,,,1348.436495100148,1349.0431978001725,1349.4282641001046,1349.928250099998,1350.4282502999995,1350.9280825001188,1351.4283511000685,1351.9284075000323,1352.5668327000458,1352.5668327000458,1353.9530843000393,1353.9530843000393,1353.9530843000393,a,0.5182900000363588,1354.4865187001415,1354.4865187001415,1354.4865187001415,1355.4866955000907,1355.4866955000907,1355.4866955000907,1349.0431978001725,,,,,992,2022-11-28_09h10.24.449,test3,2022.2.4,119.01106565555759,
stimuli_position_map_2.csv,1.52585698829013,148.319327731092,328.319327731092,low,87.4695088828737,maps/google_map_1.png,29.1501811517813,objects/1/1_87.jpg,1,indoors,MouthGuard.jpg,0,1,1,1,0,7,7,7,,,,,,,,,,,,,,,,,,,,,1355.4866955000907,1356.0931622001808,1356.4867277999874,1356.9867730000988,1357.4868034000974,1357.986742899986,1358.4868005001917,1358.9866599000525,1359.611892899964,1359.611892899964,1361.0031624999829,1361.0031624999829,1361.0031624999829,l,0.44481889996677637,1361.4617010999937,1361.4617010999937,1361.4617010999937,1362.4616662999615,1362.4616662999615,1362.4616662999615,1356.0931622001808,,,,,992,2022-11-28_09h10.24.449,test3,2022.2.4,119.01106565555759,
stimuli_position_map_2.csv,0.919524054087972,148.319327731092,328.319327731092,low,52.7115699795653,maps/google_map_1.png,5.60775775152715,objects/2/2_54.jpg,1,indoors,Bottle_Oil.jpg,0,1,1,1,0,8,8,8,,,,,,,,,,,,,,,,,,,,,1362.4616662999615,1363.0704202000052,1363.4531307001598,1363.9531807999592,1364.453254800057,1364.953391800169,1365.4534263999667,1365.9533744000364,1366.5871962001547,1366.5871962001547,1367.9783936999738,1367.9783936999738,1367.9783936999738,l,0.3586049999576062,1368.3533395000268,1368.3533395000268,1368.3533395000268,1369.3533191001043,1369.3533191001043,1369.3533191001043,1363.0704202000052,,,,,992,2022-11-28_09h10.24.449,test3,2022.2.4,119.01106565555759,
stimuli_position_map_2.csv,1.5464877260545,148.319327731092,328.319327731092,low,88.6521626400669,maps/google_map_1.png,30.3328349089745,objects/1/1_99.jpg,0,indoors,Perfume.jpg,0,1,1,1,0,9,9,9,,,,,,,,,,,,,,,,,,,,,1369.3533191001043,1369.9620499999728,1370.3452495001256,1370.8451895001344,1371.3452920001,1371.8452212000266,1372.3451299001463,1372.845127500128,1373.4865425999742,1373.4865425999742,1374.8701754000504,1374.8701754000504,1374.8701754000504,l,0.3587215996813029,1375.2450319000054,1375.2450319000054,1375.2450319000054,1376.2451355000958,1376.2451355000958,1376.2451355000958,1369.9620499999728,,,,,992,2022-11-28_09h10.24.449,test3,2022.2.4,119.01106565555759,
stimuli_position_map_2.csv,3.17503548085901,238.319327731092,70.3865546218487,singletons,182.008403361345,maps/google_map_1.png,None,objects/1/1_134.jpg,0,outdoors,TowerEiffel.jpg,0,1,1,1,0,10,10,10,,,,,,,,,,,,,,,,,,,,,1376.2451355000958,1376.8522878000513,1377.2365535001736,1377.7368271001615,1378.2366556001361,1378.7368650999852,1379.2367064000573,1379.7367136999965,1380.3755701000337,1380.3755701000337,1381.7616451000795,1381.7616451000795,1381.7616451000795,a,0.29380299989134073,1382.070177400019,1382.070177400019,1382.070177400019,1383.0701168000232,1383.0701168000232,1383.0701168000232,1376.8522878000513,,,,,992,2022-11-28_09h10.24.449,test3,2022.2.4,119.01106565555759,
stimuli_position_map_2.csv,1.2201187464001,148.319327731092,328.319327731092,low,69.9431128509614,maps/google_map_1.png,11.623785119869,objects/1/1_101.jpg,0,indoors,Chicken_FriedWing.jpg,0,1,1,1,0,11,11,11,,,,,,,,,,,,,,,,,,,,,1383.0701168000232,1383.6773119000718,1384.0701369000599,1384.5702741001733,1385.070311000105,1385.5702184000984,1386.0617959001102,1386.5617311999667,1387.2011790999677,1387.2011790999677,1388.586930999998,1388.586930999998,1388.586930999998,l,0.401892899768427,1389.0035022001248,1389.0035022001248,1389.0035022001248,1390.003586200066,1390.003586200066,1390.003586200066,1383.6773119000718,,,,,992,2022-11-28_09h10.24.449,test3,2022.2.4,119.01106565555759,
stimuli_position_map_2.csv,1.02243990751642,148.319327731092,328.319327731092,low,58.6112048894762,maps/google_map_1.png,0.291877158383786,objects/2/2_3.jpg,1,outdoors,ColumnMarble.jpg,0,1,1,1,0,12,12,12,,,,,,,,,,,,,,,,,,,,,1390.003586200066,1390.6143569000997,1391.003573300084,1391.503508000169,1392.0036005000584,1392.5037174001336,1392.9951584001537,1393.4953880000394,1394.128913300112,1394.128913300112,1395.5202836000826,1395.5202836000826,1395.5202836000826,a,0.31395339989103377,1395.8453530000988,1395.8453530000988,1395.8453530000988,1396.8451668999624,1396.8451668999624,1396.8451668999624,1390.6143569000997,,,,,992,2022-11-28_09h10.24.449,test3,2022.2.4,119.01106565555759,
stimuli_position_map_2.csv,1.56623002974933,148.319327731092,328.319327731092,low,89.7838870556942,maps/google_map_1.png,31.4645593246018,objects/1/1_58.jpg,0,indoors,Candle_ChristmasDecor.jpg,0,1,1,1,0,13,13,13,,,,,,,,,,,,,,,,,,,,,1396.8451668999624,1397.4560257999692,1397.8454414000735,1398.3453171001747,1398.8454446999822,1399.3460923000239,1399.8454625001177,1400.345259099966,1400.9779475000687,1400.9779475000687,1402.361889100168,1402.361889100168,1402.361889100168,l,0.32212019991129637,1402.695354100084,1402.695354100084,1402.695354100084,,,,1397.4560257999692,,,,,992,2022-11-28_09h10.24.449,test3,2022.2.4,119.01106565555759,
stimuli_position_map_2.csv,1.00147253400042,148.319327731092,328.319327731092,low,57.4092535414254,maps/google_map_1.png,0.910074189667017,objects/1/1_85.jpg,0,outdoors,Chimpanzee.jpg,0,1,1,1,0,14,14,14,,,,,,,,,,,,,,,,,,,,,1403.6957233999856,1404.3034773000982,1404.695129300002,1405.195422400022,1405.6952706000302,1406.1953712000977,1406.6954783000983,1407.1954863001592,1407.8207505000755,1407.8207505000755,1409.21197150019,1409.21197150019,1409.21197150019,a,0.4352752997074276,1409.662017500028,1409.662017500028,1409.662017500028,1410.6618403000757,1410.6618403000757,1410.6618403000757,1404.3034773000982,,,,,992,2022-11-28_09h10.24.449,test3,2022.2.4,119.01106565555759,
stimuli_position_map_2.csv,1.12365386032469,148.319327731092,328.319327731092,low,64.4132786173388,maps/google_map_1.png,6.09395088624637,objects/1/1_87.jpg,1,indoors,MouthGuard.jpg,0,1,1,1,0,15,15,15,,,,,,,,,,,,,,,,,,,,,1410.6618403000757,1411.269166200189,1411.6619860001374,1412.1618868999649,1412.6619035000913,1413.1618405999616,1413.6537878001109,1414.153686300153,1414.786462499993,1414.786462499993,1416.1787648000754,1416.1787648000754,1416.1787648000754,l,0.3783308998681605,1416.5702629999723,1416.5702629999723,1416.5702629999723,1417.5702466000803,1417.5702466000803,1417.5702466000803,1411.269166200189,,,,,992,2022-11-28_09h10.24.449,test3,2022.2.4,119.01106565555759,
stimuli_position_map_2.csv,1.3453883929847,148.319327731092,328.319327731092,low,77.1241753940275,maps/google_map_1.png,18.8048476629351,objects/1/1_19.jpg,0,indoors,Neckrest.jpg,0,1,1,1,0,16,16,16,,,,,,,,,,,,,,,,,,,,,1417.5702466000803,1418.18234509998,1418.5621576001868,1419.0619952001143,1419.5705236999784,1420.0703422001097,1420.570538500091,1421.0703833000734,1421.7063005999662,1421.7063005999662,1423.0871407000814,1423.0871407000814,1423.0871407000814,l,0.24828119995072484,1423.345504899975,1423.345504899975,1423.345504899975,1424.3456320001278,1424.3456320001278,1424.3456320001278,1418.18234509998,,,,,992,2022-11-28_09h10.24.449,test3,2022.2.4,119.01106565555759,
stimuli_position_map_2.csv,1.03689563642355,148.319327731092,328.319327731092,low,59.43987724721,maps/google_map_1.png,1.12054951611758,objects/1/1_6.jpg,0,indoors,Syrup_Maple.jpg,0,1,1,1,0,17,17,17,,,,,,,,,,,,,,,,,,,,,1424.3456320001278,1424.9541394000407,1425.3453876001295,1425.8466780001763,1426.3369351001456,1426.8371928001288,1427.3372102000285,1427.8373049001675,1428.475538900122,1428.475538900122,1429.8622665000148,1429.8622665000148,1429.8622665000148,l,0.6391469999216497,1430.5120312999934,1430.5120312999934,1430.5120312999934,1431.5120000999887,1431.5120000999887,1431.5120000999887,1424.9541394000407,,,,,992,2022-11-28_09h10.24.449,test3,2022.2.4,119.01106565555759,
stimuli_position_map_2.csv,1.47052396587124,148.319327731092,328.319327731092,low,84.2975521837014,maps/google_map_1.png,25.978224452609,objects/1/1_73.jpg,0,outdoors,Hook_Double.jpg,0,1,1,1,0,18,18,18,,,,,,,,,,,,,,,,,,,,,1431.5120000999887,1432.121276000049,1432.5120735999662,1433.0121642001905,1433.5122460001148,1434.0122389001772,1434.5123116001487,1435.0120870000683,1435.651116900146,1435.651116900146,1437.028748900164,1437.028748900164,1437.028748900164,a,0.3591890998650342,1437.4040626001079,1437.4040626001079,1437.4040626001079,1438.403906099964,1438.403906099964,1438.403906099964,1432.121276000049,,,,,992,2022-11-28_09h10.24.449,test3,2022.2.4,119.01106565555759,
stimuli_position_map_2.csv,1.4472400673955,148.319327731092,328.319327731092,low,82.9628064112068,maps/google_map_1.png,24.6434786801143,objects/1/1_97.jpg,0,indoors,LetterMail.jpg,0,1,1,1,0,19,19,19,,,,,,,,,,,,,,,,,,,,,1438.403906099964,1439.0125383001287,1439.3956544999965,1439.8956634001806,1440.403990500141,1440.9037305000238,1441.403776000021,1441.903764600167,1442.5363231000956,1442.5363231000956,1443.9205852001905,1443.9205852001905,1443.9205852001905,l,0.404266000026837,1444.3373217000626,1444.3373217000626,1444.3373217000626,1445.3374356999993,1445.3374356999993,1445.3374356999993,1439.0125383001287,,,,,992,2022-11-28_09h10.24.449,test3,2022.2.4,119.01106565555759,
stimuli_position_map_2.csv,0.996190906339382,148.319327731092,328.319327731092,low,57.1064850767799,maps/google_map_1.png,1.21284265431257,objects/1/1_127.jpg,0,outdoors,Fortress.jpg,0,1,1,1,0,20,20,20,,,,,,,,,,,,,,,,,,,,,1445.3374356999993,1445.9467633999884,1446.3373718000948,1446.837319600163,1447.3374501999933,1447.8372639000881,1448.338569200132,1448.8457065999974,1449.4698318999726,1449.4698318999726,1450.854024700122,1450.854024700122,1450.854024700122,a,0.27194150001741946,1451.137376200175,1451.137376200175,1451.137376200175,1452.137319300091,1452.137319300091,1452.137319300091,1445.9467633999884,,,,,992,2022-11-28_09h10.24.449,test3,2022.2.4,119.01106565555759,
stimuli_position_map_2.csv,1.17355728967905,148.319327731092,328.319327731092,low,67.2739847586718,maps/google_map_1.png,8.95465702757937,objects/1/1_87.jpg,1,indoors,MouthGuard.jpg,0,1,1,1,0,21,21,21,,,,,,,,,,,,,,,,,,,,,1452.137319300091,1452.7465606001206,1453.137175100157,1453.6375182999764,1454.1375302001834,1454.6374917000066,1455.1375524001196,1455.6373704001307,1456.2633901000954,1456.2633901000954,1457.654002000112,1457.654002000112,1457.654002000112,l,0.3434871998615563,1458.0122648000252,1458.0122648000252,1458.0122648000252,1459.0124594999943,1459.0124594999943,1459.0124594999943,1452.7465606001206,,,,,992,2022-11-28_09h10.24.449,test3,2022.2.4,119.01106565555759,
stimuli_position_map_2.csv,1.10918743929277,148.319327731092,328.319327731092,low,63.5839933352542,maps/google_map_1.png,5.26466560416175,objects/1/1_17.jpg,0,indoors,WashingMachine.jpg,0,1,1,1,0,22,22,22,,,,,,,,,,,,,,,,,,,,,1459.0124594999943,1459.6242881000508,1460.0123817999847,1460.5125064000022,1461.0125363001134,1461.513483100105,1462.0123028000817,1462.5123042000923,1463.1412214001175,1463.1412214001175,1464.5291304001585,1464.5291304001585,1464.5291304001585,l,0.6329678997863084,1465.1707107000984,1465.1707107000984,1465.1707107000984,1466.1707475001458,1466.1707475001458,1466.1707475001458,1459.6242881000508,,,,,992,2022-11-28_09h10.24.449,test3,2022.2.4,119.01106565555759,
stimuli_position_map_2.csv,1.90628257275586,148.319327731092,328.319327731092,medium,109.277344935049,maps/google_map_1.png,50.9580172039569,objects/1/1_103.jpg,0,outdoors,Door_Green.jpg,0,1,1,1,0,23,23,23,,,,,,,,,,,,,,,,,,,,,1466.1707475001458,1466.778548900038,1467.170602499973,1467.6708078000229,1468.1706565001514,1468.6706400001422,1469.1706310000736,1469.6706981000025,1470.3002454000525,1470.3002454000525,1471.6875291999895,1471.6875291999895,1471.6875291999895,a,0.28249689983204007,1471.979228900047,1471.979228900047,1471.979228900047,1472.9790142001584,1472.9790142001584,1472.9790142001584,1466.778548900038,,,,,992,2022-11-28_09h10.24.449,test3,2022.2.4,119.01106565555759,
stimuli_position_map_2.csv,2.08531791257233,148.319327731092,328.319327731092,medium,119.540517281217,maps/google_map_1.png,61.2211895501241,objects/1/1_110.jpg,0,outdoors,Boot_Rain.jpg,0,1,1,1,0,24,24,24,,,,,,,,,,,,,,,,,,,,,1472.9790142001584,1473.5911071000155,1473.9791360001545,1474.4791837001685,1474.9789706000593,1475.4791665000375,1475.9707262001466,1476.4707224001177,1477.107849100139,1477.107849100139,1478.4961187001318,1478.4961187001318,1478.4961187001318,a,1.1516225999221206,1479.6625682001468,1479.6625682001468,1479.6625682001468,1480.6626193001866,1480.6626193001866,1480.6626193001866,1473.5911071000155,,,,,992,2022-11-28_09h10.24.449,test3,2022.2.4,119.01106565555759,
stimuli_position_map_2.csv,2.23671523458584,148.319327731092,328.319327731092,medium,128.219344657787,maps/google_map_1.png,69.9000169266947,objects/1/1_78.jpg,0,indoors,Blueprints.jpg,0,1,1,1,0,25,25,25,,,,,,,,,,,,,,,,,,,,,1480.6626193001866,1481.2780226999894,1481.6627081001643,1482.1625987000298,1482.6626687000971,1483.1626337000635,1483.6624706999864,1484.162686200114,1484.7907126001082,1484.7907126001082,1486.1793439001776,1486.1793439001776,1486.1793439001776,l,0.2536638998426497,1486.4460540001746,1486.4460540001746,1486.4460540001746,1487.445820900146,1487.445820900146,1487.445820900146,1481.2780226999894,,,,,992,2022-11-28_09h10.24.449,test3,2022.2.4,119.01106565555759,
stimuli_position_map_2.csv,3.70227645399076,148.319327731092,328.319327731092,high,212.232408190553,maps/google_map_1.png,153.913080459461,objects/1/1_14.jpg,0,outdoors,Hubcap.jpg,0,1,1,1,0,26,26,26,,,,,,,,,,,,,,,,,,,,,1487.445820900146,1488.056894000154,1488.446062900126,1488.9458061000332,1489.4459365000948,1489.9459973999765,1490.4459691001102,1490.9458247001749,1491.5741210000124,1491.5741210000124,1492.9625858000945,1492.9625858000945,1492.9625858000945,a,2.3279865998774767,1495.3044630000368,1495.3044630000368,1495.3044630000368,,,,1488.056894000154,,,,,992,2022-11-28_09h10.24.449,test3,2022.2.4,119.01106565555759,
stimuli_position_map_2.csv,1.2275583630745,148.319327731092,328.319327731092,low,70.3695876921685,maps/google_map_1.png,12.0502599610761,objects/1/1_122.jpg,0,indoors,Egg_Cup.jpg,0,1,1,1,0,27,27,27,,,,,,,,,,,,,,,,,,,,,1496.3047576001845,1496.914006800158,1497.306582899997,1497.8124494000804,1498.3042476000264,1498.8044316000305,1499.3043468999676,1499.8046187001746,1500.4347861001734,1500.4347861001734,1501.8209929000586,1501.8209929000586,1501.8209929000586,l,0.44588160002604127,1502.279488200089,1502.279488200089,1502.279488200089,1503.2792458001059,1503.2792458001059,1503.2792458001059,,,,,,992,2022-11-28_09h10.24.449,test3,2022.2.4,119.01106565555759,
stimuli_position_map_2.csv,2.64877030812325,238.319327731092,224.243697478992,singletons,151.840336134454,maps/google_map_1.png,None,objects/1/1_136.jpg,0,outdoors,Stingray.jpg,0,1,1,1,0,28,28,28,,,,,,,,,,,,,,,,,,,,,1503.2792458001059,1503.8895883001387,1504.2792786001228,1504.7794674001634,1505.279389000032,1505.7806226999965,1506.2794225001708,1506.7793845001142,1507.4109979001805,1507.4109979001805,1508.7961641000584,1508.7961641000584,1508.7961641000584,a,0.30300979991443455,1509.1126755999867,1509.1126755999867,1509.1126755999867,1510.1125404001214,1510.1125404001214,1510.1125404001214,1503.8895883001387,,,,,992,2022-11-28_09h10.24.449,test3,2022.2.4,119.01106565555759,
stimuli_position_map_2.csv,4.70120448179272,238.319327731092,230.27731092437,singletons,269.495798319328,maps/google_map_1.png,None,objects/1/1_71.jpg,0,outdoors,TotemPole.jpg,0,1,1,1,0,29,29,29,,,,,,,,,,,,,,,,,,,,,1510.1125404001214,1510.718855299987,1511.1045458000153,1511.6044960001018,1512.1127785001881,1512.6129813001025,1513.1043021001387,1513.6044440001715,1514.2459083001595,1514.2459083001595,1515.629340399988,1515.629340399988,1515.629340399988,a,0.4677403997629881,1516.112499000039,1516.112499000039,1516.112499000039,1517.1128501000348,1517.1128501000348,1517.1128501000348,1510.718855299987,,,,,992,2022-11-28_09h10.24.449,test3,2022.2.4,119.01106565555759,
stimuli_position_map_2.csv,2.50659176219515,148.319327731092,328.319327731092,medium,143.689973629021,maps/google_map_1.png,85.3706458979286,objects/1/1_131.jpg,0,outdoors,Cart_Wooden.jpg,0,1,1,1,0,30,30,30,,,,,,,,,,,,,,,,,,,,,1517.1128501000348,1517.719361800002,1518.104437300004,1518.6044281001668,1519.1050460000988,1519.604305600049,1520.1043787000235,1520.6045264999848,1521.2467902000062,1521.2467902000062,1522.62965610018,1522.62965610018,1522.62965610018,l,0.40655999979935586,1523.0460894000717,1523.0460894000717,1523.0460894000717,1524.046217800118,1524.046217800118,1524.046217800118,1517.719361800002,,,,,992,2022-11-28_09h10.24.449,test3,2022.2.4,119.01106565555759,
stimuli_position_map_2.csv,3.92754334511961,148.319327731092,328.319327731092,high,225.14579685399,maps/google_map_1.png,166.826469122898,objects/1/1_18.jpg,0,outdoors,Toy_SeeSaw.jpg,0,1,1,1,0,31,31,31,,,,,,,,,,,,,,,,,,,,,1524.046217800118,1524.6530578001402,1525.046180000063,1525.5460477001034,1526.046023500152,1526.5462725001853,1527.0379696001764,1527.5378629001789,1528.1771186999977,1528.1771186999977,1529.5629068000708,1529.5629068000708,1529.5629068000708,a,0.24873869982548058,1529.821148399962,1529.821148399962,1529.821148399962,1530.8210777000058,1530.8210777000058,1530.8210777000058,1524.6530578001402,,,,,992,2022-11-28_09h10.24.449,test3,2022.2.4,119.01106565555759,
stimuli_position_map_2.csv,1.05956804712344,148.319327731092,328.319327731092,low,60.7395695803244,maps/google_map_1.png,2.42024184923199,objects/1/1_87.jpg,1,indoors,MouthGuard.jpg,0,1,1,1,0,32,32,32,,,,,,,,,,,,,,,,,,,,,1530.8210777000058,1531.4336977000348,1531.8130255001597,1532.3129338000435,1532.8211313001812,1533.3212781001348,1533.8128810999915,1534.3129032000434,1534.949932700023,1534.949932700023,1536.338085600175,1536.338085600175,1536.338085600175,l,0.3286915000062436,1536.6795602000784,1536.6795602000784,1536.6795602000784,1537.6794859000947,1537.6794859000947,1537.6794859000947,1531.4336977000348,,,,,992,2022-11-28_09h10.24.449,test3,2022.2.4,119.01106565555759,
stimuli_position_map_2.csv,0.88721467811336,148.319327731092,328.319327731092,low,50.8594401466257,maps/google_map_1.png,7.45988758446672,objects/1/1_113.jpg,0,outdoors,Crossbow.jpg,0,1,1,1,0,33,33,33,,,,,,,,,,,,,,,,,,,,,1537.6794859000947,1538.2914414000697,1538.6714878000785,1539.1711587000173,1539.6795781000983,1540.1795811001211,1540.6715212001,1541.171594799962,1541.8106116000563,1541.8106116000563,1543.196386600146,1543.196386600146,1543.196386600146,a,0.2985314999241382,1543.5046119999606,1543.5046119999606,1543.5046119999606,1544.5047995001078,1544.5047995001078,1544.5047995001078,1538.2914414000697,,,,,992,2022-11-28_09h10.24.449,test3,2022.2.4,119.01106565555759,
stimuli_position_map_2.csv,1.38722744858078,148.319327731092,328.319327731092,low,79.5225925938027,maps/google_map_1.png,21.2032648627103,objects/1/1_125.jpg,0,outdoors,Pickaxe.jpg,0,1,1,1,0,34,34,34,,,,,,,,,,,,,,,,,,,,,1544.5047995001078,1545.112054400146,1545.5047979000956,1546.0058161001652,1546.5047367000952,1547.0046949000098,1547.5046333000064,1548.0045811000746,1548.6336348999757,1548.6336348999757,1550.0213656001724,1550.0213656001724,1550.0213656001724,a,0.2738916997332126,1550.3044675001875,1550.3044675001875,1550.3044675001875,1551.3046315000392,1551.3046315000392,1551.3046315000392,1545.112054400146,,,,,992,2022-11-28_09h10.24.449,test3,2022.2.4,119.01106565555759,
stimuli_position_map_2.csv,1.22210465221004,148.319327731092,328.319327731092,low,70.0569545852887,maps/google_map_1.png,11.7376268541962,objects/1/1_87.jpg,1,indoors,MouthGuard.jpg,0,1,1,1,0,35,35,35,,,,,,,,,,,,,,,,,,,,,1551.3046315000392,1551.9135612000246,1552.3048394999932,1552.8047812001314,1553.3049480000045,1553.8049121999647,1554.3048636000603,1554.8056548000313,1555.4307651000563,1555.4307651000563,1556.8213551000226,1556.8213551000226,1556.8213551000226,l,0.19562239991500974,1557.0297610000707,1557.0297610000707,1557.0297610000707,1558.0296714999713,1558.0296714999713,1558.0296714999713,1551.9135612000246,,,,,992,2022-11-28_09h10.24.449,test3,2022.2.4,119.01106565555759,
stimuli_position_map_2.csv,1.10304354329757,148.319327731092,328.319327731092,low,63.2317954756569,maps/google_map_1.png,4.91246774456443,objects/2/2_3.jpg,1,outdoors,ColumnMarble.jpg,0,1,1,1,0,36,36,36,,,,,,,,,,,,,,,,,,,,,1558.0296714999713,1558.6396435000934,1559.0214256001636,1559.5214881000575,1560.0296048000455,1560.5296169000212,1561.0296614000108,1561.5298308001366,1562.1532122001518,1562.1532122001518,1563.5465653000865,1563.5465653000865,1563.5465653000865,a,0.12748699984513223,1563.6891636000946,1563.6891636000946,1563.6891636000946,,,,1558.6396435000934,,,,,992,2022-11-28_09h10.24.449,test3,2022.2.4,119.01106565555759,
stimuli_position_map_2.csv,1.10465669489717,148.319327731092,328.319327731092,low,63.3242691342329,maps/google_map_1.png,5.0049414031405,objects/1/1_54.jpg,0,outdoors,LeafBlower.jpg,0,1,1,1,0,37,37,37,,,,,,,,,,,,,,,,,,,,,1564.6965067000128,1565.3028309000656,1565.6880893001799,1566.188148900168,1566.6880090001505,1567.1881470000371,1567.6880114001688,1568.1881010001525,1568.8227347000502,1568.8227347000502,1570.2050195001066,1570.2050195001066,1570.2050195001066,a,0.36352809984236956,1570.5796737000346,1570.5796737000346,1570.5796737000346,1571.5798119001556,1571.5798119001556,1571.5798119001556,,,,,,992,2022-11-28_09h10.24.449,test3,2022.2.4,119.01106565555759,
stimuli_position_map_2.csv,1.24666990366639,148.319327731092,328.319327731092,low,71.4651537133597,maps/google_map_1.png,13.1458259822673,objects/1/1_61.jpg,1,indoors,Bottle_Baby.jpg,0,1,1,1,0,38,38,38,,,,,,,,,,,,,,,,,,,,,1571.5798119001556,1572.1896375000942,1572.5797825001646,1573.0797663000412,1573.5715191001073,1574.0716490000486,1574.5716691000853,1575.0716653000563,1575.7046962000895,1575.7046962000895,1577.0977829000913,1577.0977829000913,1577.0977829000913,l,0.29770819982513785,1577.4048379000742,1577.4048379000742,1577.4048379000742,1578.4050501000602,1578.4050501000602,1578.4050501000602,1572.1896375000942,,,,,992,2022-11-28_09h10.24.449,test3,2022.2.4,119.01106565555759,
stimuli_position_map_2.csv,1.097539497708,148.319327731092,328.319327731092,low,62.9162769386749,maps/google_map_1.png,4.59694920758249,objects/1/1_81.jpg,0,outdoors,Outhouse.jpg,0,1,1,1,0,39,39,39,,,,,,,,,,,,,,,,,,,,,1578.4050501000602,1579.0123322000727,1579.4051053000148,1579.9048967000563,1580.3964921999723,1580.896650900133,1581.3964679001365,1581.8966540000401,1582.5347569000442,1582.5347569000442,1583.921517800074,1583.921517800074,1583.921517800074,a,0.5004029998090118,1584.4383076000959,1584.4383076000959,1584.4383076000959,1585.4381403999869,1585.4381403999869,1585.4381403999869,1579.0123322000727,,,,,992,2022-11-28_09h10.24.449,test3,2022.2.4,119.01106565555759,
stimuli_position_map_2.csv,0.870714007003522,148.319327731092,328.319327731092,low,49.9135418027497,maps/google_map_1.png,8.40578592834274,objects/1/1_61.jpg,1,indoors,Bottle_Baby.jpg,0,1,1,1,0,40,40,40,,,,,,,,,,,,,,,,,,,,,1585.4381403999869,1586.050023500109,1586.4298569001257,1586.9299359000288,1587.4298436001409,1587.9299480000045,1588.4299847001676,1588.9298798001837,1589.5668888001237,1589.5668888001237,1590.9551042001694,1590.9551042001694,1590.9551042001694,l,0.3701433998066932,1591.3384130001068,1591.3384130001068,1591.3384130001068,1592.338060399983,1592.338060399983,1592.338060399983,1586.050023500109,,,,,992,2022-11-28_09h10.24.449,test3,2022.2.4,119.01106565555759,
stimuli_position_map_2.csv,0.963317714966675,148.319327731092,328.319327731092,low,55.222034615924,maps/google_map_1.png,3.09729311516841,objects/1/1_90.jpg,1,outdoors,TreeHouse.jpg,0,1,1,1,0,41,41,41,,,,,,,,,,,,,,,,,,,,,1592.338060399983,1592.949815100059,1593.3381676999852,1593.8382264999673,1594.338294400135,1594.838343200041,1595.3382374001667,1595.8383802999742,1596.4645559000783,1596.4645559000783,1597.8548047000077,1597.8548047000077,1597.8548047000077,a,0.3779344998765737,1598.246695100097,1598.246695100097,1598.246695100097,1599.246728300117,1599.246728300117,1599.246728300117,1592.949815100059,,,,,992,2022-11-28_09h10.24.449,test3,2022.2.4,119.01106565555759,
stimuli_position_map_2.csv,3.97140999272493,148.319327731092,328.319327731092,high,227.66044544283,maps/google_map_1.png,169.341117711738,objects/1/1_88.jpg,0,outdoors,Acorn.jpg,0,1,1,1,0,42,42,42,,,,,,,,,,,,,,,,,,,,,1599.246728300117,1599.8564734000247,1600.2382822001819,1600.7384282001294,1601.2382394000888,1601.7382927001454,1602.2468529001344,1602.7467034000438,1603.3787198001519,1603.3787198001519,1604.7635525001679,1604.7635525001679,1604.7635525001679,a,0.24105209996923804,1605.0134180001915,1605.0134180001915,1605.0134180001915,1606.0132673000917,1606.0132673000917,1606.0132673000917,1599.8564734000247,,,,,992,2022-11-28_09h10.24.449,test3,2022.2.4,119.01106565555759,
stimuli_position_map_2.csv,0.63243641477725,148.319327731092,328.319327731092,low,36.2543167706704,maps/google_map_1.png,22.065010960422,objects/1/1_30.jpg,0,outdoors,Boat_Ferry.jpg,0,1,1,1,0,43,43,43,,,,,,,,,,,,,,,,,,,,,1606.0132673000917,1606.6232233999763,1607.0132504999638,1607.5132915000431,1608.013478100067,1608.51354490011,1609.0134376001079,1609.5136570001487,1610.1441623000428,1610.1441623000428,1611.5303015999962,1611.5303015999962,1611.5303015999962,a,0.35786909982562065,1611.8969505999703,1611.8969505999703,1611.8969505999703,1612.8966934001073,1612.8966934001073,1612.8966934001073,1606.6232233999763,,,,,992,2022-11-28_09h10.24.449,test3,2022.2.4,119.01106565555759,
stimuli_position_map_2.csv,2.96452941176471,58.3193277310925,139.773109243697,singletons,169.941176470588,maps/google_map_1.png,None,objects/1/1_94.jpg,0,indoors,Toy_BlocksLetter.jpg,0,1,1,1,0,44,44,44,,,,,,,,,,,,,,,,,,,,,1612.8966934001073,1613.5041445000097,1613.8968322,1614.396863900125,1614.8967067000922,1615.3969735000283,1615.8967045000754,1616.3970423999708,1617.0304303001612,1617.0304303001612,1618.4136214000173,1618.4136214000173,1618.4136214000173,l,0.2934516998939216,1618.7217101000715,1618.7217101000715,1618.7217101000715,1619.7217831001617,1619.7217831001617,1619.7217831001617,1613.5041445000097,,,,,992,2022-11-28_09h10.24.449,test3,2022.2.4,119.01106565555759,
