"","radians","center","pos_1","pos_2","type","degrees","map_file","PE","object","isFiller","outdoors_response","stimulus","old_new","trials.thisRepN","trials.thisTrialN","trials.thisN","trials.thisIndex","location_loop.thisRepN","location_loop.thisTrialN","location_loop.thisN","location_loop.thisIndex","instructions_text.started","key_resp.started","key_resp.keys","key_resp.rt","conf_resp_2.started","conf_prompt_2.started","conf.started","conf_7.started","conf_8.started","conf_9.started","conf_10.started","conf_11.started","conf_resp_2.keys","conf_resp_2.rt","Instr_4_text.started","Instr_4_resp.started","Instr_4_resp.keys","Instr_4_resp.rt","final_instr_resp.started","instruction_final_text.started","final_instr_resp.keys","final_instr_resp.rt","text_4.started","image_feedb_2.started","conf_resp.started","conf_prompt.started","conf_1.started","conf_2.started","conf_3.started","conf_4.started","conf_5.started","conf_6.started","conf_resp.keys","conf_resp.rt","text_4.stopped","image_2.started","predict_prompt.started","line.started","response","key_resp_2.keys","key_resp_2.rt","instructions_text_2.started","key_resp_3.started","key_resp_3.keys","key_resp_3.rt","participant","date","expName","psychopyVersion","frameRate","X","recog_acc"
"5","None","None","None","None","None","None","maps/google_map_1.png","None","objects/2/2_30.jpg","None","indoors","Spoons_MeasuringDetached.jpg","new",0,0,0,0,NA,NA,NA,NA,NA,NA,"",NA,NA,NA,NA,NA,NA,NA,NA,NA,"",NA,NA,NA,"",NA,NA,NA,"",NA,29.6413526999968,28.4028543999957,28.4028543999957,28.4028543999957,28.4028543999957,28.4028543999957,28.4028543999957,28.4028543999957,28.4028543999957,28.4028543999957,1,1.22397390000697,29.8875329000002,NA,NA,NA,NA,"","",NA,NA,"",NA,194,"2022-12-23_11h05.26.540","PEmem_Phase-02_retrieval","2022.2.4","None",NA,1
"6","None","None","None","None","None","None","maps/google_map_1.png","None","objects/2/2_38.jpg","None","indoors","ComputerMouse.jpg","new",0,1,1,1,NA,NA,NA,NA,NA,NA,"",NA,NA,NA,NA,NA,NA,NA,NA,NA,"",NA,NA,NA,"",NA,NA,NA,"",NA,31.0459285999968,30.1486854999966,30.1486854999966,30.1486854999966,30.1486854999966,30.1486854999966,30.1486854999966,30.1486854999966,30.1486854999966,30.1486854999966,1,0.882195000005595,31.2873839999957,NA,NA,NA,NA,"","",NA,NA,"",NA,194,"2022-12-23_11h05.26.540","PEmem_Phase-02_retrieval","2022.2.4","None",NA,1
"7","None","None","None","None","None","None","maps/google_map_1.png","None","objects/2/2_42.jpg","None","outdoors","Kite_Rainbow.jpg","new",0,2,2,2,NA,NA,NA,NA,NA,NA,"",NA,NA,NA,NA,NA,NA,NA,NA,NA,"",NA,NA,NA,"",NA,NA,NA,"",NA,32.1708710999956,31.5452917000002,31.5452917000002,31.5452917000002,31.5452917000002,31.5452917000002,31.5452917000002,31.5452917000002,31.5452917000002,31.5452917000002,1,0.612814300002356,32.4127612999946,NA,NA,NA,NA,"","",NA,NA,"",NA,194,"2022-12-23_11h05.26.540","PEmem_Phase-02_retrieval","2022.2.4","None",NA,1
"8","1.70141817299976","106.588235294118","196.588235294118","16.5882352941177","low","97.5335258407505","maps/google_map_1.png","9.05470945336716","objects/1/1_88.jpg","0.0","outdoors","Golf_Club.jpg","old",0,3,3,3,0,0,0,0,NA,NA,"",NA,NA,NA,NA,NA,NA,NA,NA,NA,"",NA,NA,NA,"",NA,NA,NA,"",NA,33.5376384999981,32.6714632999938,32.6714632999938,32.6714632999938,32.6714632999938,32.6714632999938,32.6714632999938,32.6714632999938,32.6714632999938,32.6714632999938,1,0.855954400001792,34.0165983999977,34.0165983999977,34.0165983999977,34.0165983999977,58,"['return']","[1.677358799999638]",NA,NA,"",NA,194,"2022-12-23_11h05.26.540","PEmem_Phase-02_retrieval","2022.2.4","None",NA,0
"10","None","None","None","None","None","None","maps/google_map_1.png","None","objects/2/2_100.jpg","None","outdoors","Hay.jpg","new",0,4,4,4,NA,NA,NA,NA,NA,NA,"",NA,NA,NA,NA,NA,NA,NA,NA,NA,"",NA,NA,NA,"",NA,NA,NA,"",NA,38.1628412999999,35.958075399998,35.958075399998,35.958075399998,35.958075399998,35.958075399998,35.958075399998,35.958075399998,35.958075399998,35.958075399998,1,2.19552890000341,38.4044155999945,NA,NA,NA,NA,"","",NA,NA,"",NA,194,"2022-12-23_11h05.26.540","PEmem_Phase-02_retrieval","2022.2.4","None",NA,1
"11","None","None","None","None","None","None","maps/google_map_1.png","None","objects/2/2_142.jpg","None","indoors","Slippers.jpg","new",0,5,5,5,NA,NA,NA,NA,NA,NA,"",NA,NA,NA,NA,NA,NA,NA,NA,NA,"",NA,NA,NA,"",NA,NA,NA,"",NA,39.3544110000003,38.6647363999946,38.6647363999946,38.6647363999946,38.6647363999946,38.6647363999946,38.6647363999946,38.6647363999946,38.6647363999946,38.6647363999946,1,0.680902400003106,39.5959927999938,NA,NA,NA,NA,"","",NA,NA,"",NA,194,"2022-12-23_11h05.26.540","PEmem_Phase-02_retrieval","2022.2.4","None",NA,1
"12","None","None","None","None","None","None","maps/google_map_1.png","None","objects/2/2_123.jpg","None","outdoors","Bird_Eagle.jpg","new",0,6,6,6,NA,NA,NA,NA,NA,NA,"",NA,NA,NA,NA,NA,NA,NA,NA,NA,"",NA,NA,NA,"",NA,NA,NA,"",NA,40.6378097999986,39.8577328999963,39.8577328999963,39.8577328999963,39.8577328999963,39.8577328999963,39.8577328999963,39.8577328999963,39.8577328999963,39.8577328999963,1,0.773837100001401,40.8822067999936,NA,NA,NA,NA,"","",NA,NA,"",NA,194,"2022-12-23_11h05.26.540","PEmem_Phase-02_retrieval","2022.2.4","None",NA,1
"13","3.83851059992317","106.588235294118","196.588235294118","16.5882352941177","medium","220.042008912793","maps/google_map_1.png","113.453773618676","objects/1/1_16.jpg","0.0","indoors","Qtip_Single.jpg","old",0,7,7,7,0,0,0,0,NA,NA,"",NA,NA,NA,NA,NA,NA,NA,NA,NA,"",NA,NA,NA,"",NA,NA,NA,"",NA,42.5211482999948,41.1474044999995,41.1474044999995,41.1474044999995,41.1474044999995,41.1474044999995,41.1474044999995,41.1474044999995,41.1474044999995,41.1474044999995,5,1.36482060000708,42.8756254999971,42.8756254999971,42.8756254999971,42.8756254999971,191,"['return']","[0.9890469000019948]",NA,NA,"",NA,194,"2022-12-23_11h05.26.540","PEmem_Phase-02_retrieval","2022.2.4","None",NA,1
"15","None","None","None","None","None","None","maps/google_map_1.png","None","objects/2/2_79.jpg","None","indoors","Key_Car.jpg","new",0,8,8,8,NA,NA,NA,NA,NA,NA,"",NA,NA,NA,NA,NA,NA,NA,NA,NA,"",NA,NA,NA,"",NA,NA,NA,"",NA,46.0376854999995,44.1254910999996,44.1254910999996,44.1254910999996,44.1254910999996,44.1254910999996,44.1254910999996,44.1254910999996,44.1254910999996,44.1254910999996,1,1.89595779999945,46.2793701999981,NA,NA,NA,NA,"","",NA,NA,"",NA,194,"2022-12-23_11h05.26.540","PEmem_Phase-02_retrieval","2022.2.4","None",NA,1
"16","None","None","None","None","None","None","maps/google_map_1.png","None","objects/2/2_16.jpg","None","outdoors","Sign_SpeedLimit25.jpg","new",0,9,9,9,NA,NA,NA,NA,NA,NA,"",NA,NA,NA,NA,NA,NA,NA,NA,NA,"",NA,NA,NA,"",NA,NA,NA,"",NA,47.4294501999975,46.5387645999945,46.5387645999945,46.5387645999945,46.5387645999945,46.5387645999945,46.5387645999945,46.5387645999945,46.5387645999945,46.5387645999945,1,0.88142119999975,47.6709950000004,NA,NA,NA,NA,"","",NA,NA,"",NA,194,"2022-12-23_11h05.26.540","PEmem_Phase-02_retrieval","2022.2.4","None",NA,1
"17","None","None","None","None","None","None","maps/google_map_1.png","None","objects/2/2_39.jpg","None","outdoors","Flags_CheckeredRacing.jpg","new",0,10,10,10,NA,NA,NA,NA,NA,NA,"",NA,NA,NA,NA,NA,NA,NA,NA,NA,"",NA,NA,NA,"",NA,NA,NA,"",NA,48.6127746999991,47.9306351999985,47.9306351999985,47.9306351999985,47.9306351999985,47.9306351999985,47.9306351999985,47.9306351999985,47.9306351999985,47.9306351999985,1,0.66689690000203,48.8543725999989,NA,NA,NA,NA,"","",NA,NA,"",NA,194,"2022-12-23_11h05.26.540","PEmem_Phase-02_retrieval","2022.2.4","None",NA,1
"18","None","None","None","None","None","None","maps/google_map_1.png","None","objects/2/2_21.jpg","None","outdoors","Dog_SaintBernard.jpg","new",0,11,11,11,NA,NA,NA,NA,NA,NA,"",NA,NA,NA,NA,NA,NA,NA,NA,NA,"",NA,NA,NA,"",NA,NA,NA,"",NA,49.8135521000004,49.1093879999971,49.1093879999971,49.1093879999971,49.1093879999971,49.1093879999971,49.1093879999971,49.1093879999971,49.1093879999971,49.1093879999971,1,0.692450700000336,50.0542915999977,NA,NA,NA,NA,"","",NA,NA,"",NA,194,"2022-12-23_11h05.26.540","PEmem_Phase-02_retrieval","2022.2.4","None",NA,1
"19","None","None","None","None","None","None","maps/google_map_1.png","None","objects/2/2_128.jpg","None","indoors","SewingPin_Single.jpg","new",0,12,12,12,NA,NA,NA,NA,NA,NA,"",NA,NA,NA,NA,NA,NA,NA,NA,NA,"",NA,NA,NA,"",NA,NA,NA,"",NA,51.2210670999994,50.3118038999964,50.3118038999964,50.3118038999964,50.3118038999964,50.3118038999964,50.3118038999964,50.3118038999964,50.3118038999964,50.3118038999964,1,0.897068700003729,51.4627220999973,NA,NA,NA,NA,"","",NA,NA,"",NA,194,"2022-12-23_11h05.26.540","PEmem_Phase-02_retrieval","2022.2.4","None",NA,1
"20","5.8202360323559","196.588235294118","286.588235294118","106.588235294118","high","333.644103765625","maps/google_map_1.png","137.055868471507","objects/1/1_83.jpg","0.0","outdoors","Swing_Child.jpg","old",0,13,13,13,0,0,0,0,NA,NA,"",NA,NA,NA,NA,NA,NA,NA,NA,NA,"",NA,NA,NA,"",NA,NA,NA,"",NA,52.8127038999955,51.7174177999987,51.7174177999987,51.7174177999987,51.7174177999987,51.7174177999987,51.7174177999987,51.7174177999987,51.7174177999987,51.7174177999987,5,1.08525920000102,53.1667772000001,53.1667772000001,53.1667772000001,53.1667772000001,2,"['return']","[1.8146657000033883]",NA,NA,"",NA,194,"2022-12-23_11h05.26.540","PEmem_Phase-02_retrieval","2022.2.4","None",NA,1
"22","3.36164901430429","196.588235294118","286.588235294118","106.588235294118","low","192.705994450564","maps/google_map_1.png","3.88224084355317","objects/1/1_8.jpg","0.0","outdoors","Snake_Cobra.jpg","old",0,14,14,14,0,0,0,0,NA,NA,"",NA,NA,NA,NA,NA,NA,NA,NA,NA,"",NA,NA,NA,"",NA,NA,NA,"",NA,56.6462040999977,55.2478737999991,55.2478737999991,55.2478737999991,55.2478737999991,55.2478737999991,55.2478737999991,55.2478737999991,55.2478737999991,55.2478737999991,4,1.3848025000043,56.9971584999948,56.9971584999948,56.9971584999948,56.9971584999948,128.5,"['return']","[3.851031199999852]",NA,NA,"",NA,194,"2022-12-23_11h05.26.540","PEmem_Phase-02_retrieval","2022.2.4","None",NA,1
"24","0.26187304611536","196.588235294118","286.588235294118","106.588235294118","high","15.0118306690334","maps/google_map_1.png","178.423595374916","objects/1/1_108.jpg","0.0","indoors","Lipstick.jpg","old",0,15,15,15,0,0,0,0,NA,NA,"",NA,NA,NA,NA,NA,NA,NA,NA,NA,"",NA,NA,NA,"",NA,NA,NA,"",NA,91.4549625,61.1146907000002,61.1146907000002,61.1146907000002,61.1146907000002,61.1146907000002,61.1146907000002,61.1146907000002,61.1146907000002,61.1146907000002,6,30.3271236000073,91.8102194999956,91.8102194999956,91.8102194999956,91.8102194999956,161.5,"['return']","[2.3320280000043567]",NA,NA,"",NA,194,"2022-12-23_11h05.26.540","PEmem_Phase-02_retrieval","2022.2.4","None",NA,1
"26","1.91694278626923","106.588235294118","196.588235294118","16.5882352941177","low","109.888439977217","maps/google_map_1.png","3.30020468309922","objects/1/1_33.jpg","0.0","indoors","Mop.jpg","old",0,16,16,16,0,0,0,0,NA,NA,"",NA,NA,NA,NA,NA,NA,NA,NA,NA,"",NA,NA,NA,"",NA,NA,NA,"",NA,95.6381654999932,94.4067717999933,94.4067717999933,94.4067717999933,94.4067717999933,94.4067717999933,94.4067717999933,94.4067717999933,94.4067717999933,94.4067717999933,5,1.22258240000519,95.9892437999952,95.9892437999952,95.9892437999952,95.9892437999952,122.5,"['return']","[1.0080396000048495]",NA,NA,"",NA,194,"2022-12-23_11h05.26.540","PEmem_Phase-02_retrieval","2022.2.4","None",NA,1
"28","3.22184618671929","196.588235294118","286.588235294118","106.588235294118","low","184.691819620851","maps/google_map_1.png","11.8964156732668","objects/1/1_133.jpg","0.0","indoors","Clip_Paper.jpg","old",0,17,17,17,0,0,0,0,NA,NA,"",NA,NA,NA,NA,NA,NA,NA,NA,NA,"",NA,NA,NA,"",NA,NA,NA,"",NA,98.0631553999992,97.2587482999952,97.2587482999952,97.2587482999952,97.2587482999952,97.2587482999952,97.2587482999952,97.2587482999952,97.2587482999952,97.2587482999952,5,0.795766600007482,98.4144641999956,98.4144641999956,98.4144641999956,98.4144641999956,72,"['return']","[0.7118392000047606]",NA,NA,"",NA,194,"2022-12-23_11h05.26.540","PEmem_Phase-02_retrieval","2022.2.4","None",NA,1
"30","4.99604997347793","106.588235294118","196.588235294118","16.5882352941177","high","286.397769180263","maps/google_map_1.png","179.809533886146","objects/1/1_110.jpg","0.0","indoors","Belt.jpg","old",0,18,18,18,0,0,0,0,NA,NA,"",NA,NA,NA,NA,NA,NA,NA,NA,NA,"",NA,NA,NA,"",NA,NA,NA,"",NA,100.188222199999,99.3989917999934,99.3989917999934,99.3989917999934,99.3989917999934,99.3989917999934,99.3989917999934,99.3989917999934,99.3989917999934,99.3989917999934,5,0.778411999999662,100.537356599998,100.537356599998,100.537356599998,100.537356599998,303,"['return']","[0.9863698000044678]",NA,NA,"",NA,194,"2022-12-23_11h05.26.540","PEmem_Phase-02_retrieval","2022.2.4","None",NA,1
"32","1.26658914834245","106.588235294118","196.588235294118","16.5882352941177","low","72.607021242561","maps/google_map_1.png","33.9812140515567","objects/1/1_51.jpg","0.0","indoors","DusterFeather.jpg","old",0,19,19,19,0,0,0,0,NA,NA,"",NA,NA,NA,NA,NA,NA,NA,NA,NA,"",NA,NA,NA,"",NA,NA,NA,"",NA,102.454787499999,101.7891858,101.7891858,101.7891858,101.7891858,101.7891858,101.7891858,101.7891858,101.7891858,101.7891858,5,0.655942800003686,102.805175699999,102.805175699999,102.805175699999,102.805175699999,44,"['return']","[0.9187165000039386]",NA,NA,"",NA,194,"2022-12-23_11h05.26.540","PEmem_Phase-02_retrieval","2022.2.4","None",NA,1
"34","4.70120448179272","106.588235294118","106.588235294118","43.2352941176471","singletons","269.495798319328","maps/google_map_1.png","None","objects/1/1_123.jpg","0.0","indoors","Chair_Rocking.jpg","old",0,20,20,20,0,0,0,0,NA,NA,"",NA,NA,NA,NA,NA,NA,NA,NA,NA,"",NA,NA,NA,"",NA,NA,NA,"",NA,105.846348599996,103.989706199995,103.989706199995,103.989706199995,103.989706199995,103.989706199995,103.989706199995,103.989706199995,103.989706199995,103.989706199995,6,1.8439278000078,106.196085399999,106.196085399999,106.196085399999,106.196085399999,158.5,"['return']","[1.0647058000031393]",NA,NA,"",NA,194,"2022-12-23_11h05.26.540","PEmem_Phase-02_retrieval","2022.2.4","None",NA,1
"36","None","None","None","None","None","None","maps/google_map_1.png","None","objects/2/2_104.jpg","None","indoors","Man.jpg","new",0,21,21,21,NA,NA,NA,NA,NA,NA,"",NA,NA,NA,NA,NA,NA,NA,NA,NA,"",NA,NA,NA,"",NA,NA,NA,"",NA,109.088281999997,107.539480199994,107.539480199994,107.539480199994,107.539480199994,107.539480199994,107.539480199994,107.539480199994,107.539480199994,107.539480199994,1,1.54007830000046,109.330026799995,NA,NA,NA,NA,"","",NA,NA,"",NA,194,"2022-12-23_11h05.26.540","PEmem_Phase-02_retrieval","2022.2.4","None",NA,1
"37","None","None","None","None","None","None","maps/google_map_1.png","None","objects/2/2_81.jpg","None","indoors","ComputerKey_Escape.jpg","new",0,22,22,22,NA,NA,NA,NA,NA,NA,"",NA,NA,NA,NA,NA,NA,NA,NA,NA,"",NA,NA,NA,"",NA,NA,NA,"",NA,110.104950199995,109.587222599999,109.587222599999,109.587222599999,109.587222599999,109.587222599999,109.587222599999,109.587222599999,109.587222599999,109.587222599999,1,0.508130599999276,110.346501599997,NA,NA,NA,NA,"","",NA,NA,"",NA,194,"2022-12-23_11h05.26.540","PEmem_Phase-02_retrieval","2022.2.4","None",NA,1
"38","None","None","None","None","None","None","maps/google_map_1.png","None","objects/2/2_103.jpg","None","indoors","PaperStack.jpg","new",0,23,23,23,NA,NA,NA,NA,NA,NA,"",NA,NA,NA,NA,NA,NA,NA,NA,NA,"",NA,NA,NA,"",NA,NA,NA,"",NA,111.196694899998,110.607742399996,110.607742399996,110.607742399996,110.607742399996,110.607742399996,110.607742399996,110.607742399996,110.607742399996,110.607742399996,1,0.572992499997781,111.438326199997,NA,NA,NA,NA,"","",NA,NA,"",NA,194,"2022-12-23_11h05.26.540","PEmem_Phase-02_retrieval","2022.2.4","None",NA,1
"39","None","None","None","None","None","None","maps/google_map_1.png","None","objects/2/2_22.jpg","None","indoors","Triangle.jpg","new",0,24,24,24,NA,NA,NA,NA,NA,NA,"",NA,NA,NA,NA,NA,NA,NA,NA,NA,"",NA,NA,NA,"",NA,NA,NA,"",NA,112.246470599996,111.696551099994,111.696551099994,111.696551099994,111.696551099994,111.696551099994,111.696551099994,111.696551099994,111.696551099994,111.696551099994,1,0.535986800008686,112.501403399998,NA,NA,NA,NA,"","",NA,NA,"",NA,194,"2022-12-23_11h05.26.540","PEmem_Phase-02_retrieval","2022.2.4","None",NA,1
"40","3.10944216015178","196.588235294118","286.588235294118","106.588235294118","low","178.248276696599","maps/google_map_1.png","18.339958597519","objects/1/1_13.jpg","0.0","outdoors","Bird_Duck.jpg","old",0,25,25,25,0,0,0,0,NA,NA,"",NA,NA,NA,NA,NA,NA,NA,NA,NA,"",NA,NA,NA,"",NA,NA,NA,"",NA,114.021488299994,112.764181499995,112.764181499995,112.764181499995,112.764181499995,112.764181499995,112.764181499995,112.764181499995,112.764181499995,112.764181499995,5,1.24250440000469,114.375096399999,114.375096399999,114.375096399999,114.375096399999,57,"['return']","[0.7809794999993755]",NA,NA,"",NA,194,"2022-12-23_11h05.26.540","PEmem_Phase-02_retrieval","2022.2.4","None",NA,1
"42","None","None","None","None","None","None","maps/google_map_1.png","None","objects/2/2_93.jpg","None","outdoors","Mixer_Cement.jpg","new",0,26,26,26,NA,NA,NA,NA,NA,NA,"",NA,NA,NA,NA,NA,NA,NA,NA,NA,"",NA,NA,NA,"",NA,NA,NA,"",NA,116.788268699995,115.428071399998,115.428071399998,115.428071399998,115.428071399998,115.428071399998,115.428071399998,115.428071399998,115.428071399998,115.428071399998,1,1.34458270000323,117.030063399994,NA,NA,NA,NA,"","",NA,NA,"",NA,194,"2022-12-23_11h05.26.540","PEmem_Phase-02_retrieval","2022.2.4","None",NA,1
"43","5.80636134453782","196.588235294118","16.5882352941177","314.747899159664","singletons","332.848739495798","maps/google_map_1.png","None","objects/1/1_6.jpg","0.0","outdoors","Bird_Parrot.jpg","old",0,27,27,27,0,0,0,0,NA,NA,"",NA,NA,NA,NA,NA,NA,NA,NA,NA,"",NA,NA,NA,"",NA,NA,NA,"",NA,118.330061799999,117.289828499997,117.289828499997,117.289828499997,117.289828499997,117.289828499997,117.289828499997,117.289828499997,117.289828499997,117.289828499997,5,1.02615410000726,118.679371999999,118.679371999999,118.679371999999,118.679371999999,70.5,"['return']","[0.5433861000055913]",NA,NA,"",NA,194,"2022-12-23_11h05.26.540","PEmem_Phase-02_retrieval","2022.2.4","None",NA,1
"45","3.39603528477332","196.588235294118","286.588235294118","106.588235294118","low","194.677181929681","maps/google_map_1.png","1.91105336443709","objects/1/1_100.jpg","0.0","indoors","Pasta_Macaroni.jpg","old",0,28,28,28,0,0,0,0,NA,NA,"",NA,NA,NA,NA,NA,NA,NA,NA,NA,"",NA,NA,NA,"",NA,NA,NA,"",NA,120.329967999998,119.493127299997,119.493127299997,119.493127299997,119.493127299997,119.493127299997,119.493127299997,119.493127299997,119.493127299997,119.493127299997,5,0.822432599998137,120.681795099998,120.681795099998,120.681795099998,120.681795099998,112,"['return']","[1.8029906000083429]",NA,NA,"",NA,194,"2022-12-23_11h05.26.540","PEmem_Phase-02_retrieval","2022.2.4","None",NA,1
"47","None","None","None","None","None","None","maps/google_map_1.png","None","objects/2/2_43.jpg","None","indoors","Candy_GummyBear.jpg","new",0,29,29,29,NA,NA,NA,NA,NA,NA,"",NA,NA,NA,NA,NA,NA,NA,NA,NA,"",NA,NA,NA,"",NA,NA,NA,"",NA,124.038383299994,122.756276799999,122.756276799999,122.756276799999,122.756276799999,122.756276799999,122.756276799999,122.756276799999,122.756276799999,122.756276799999,1,1.27342450000287,124.280069199995,NA,NA,NA,NA,"","",NA,NA,"",NA,194,"2022-12-23_11h05.26.540","PEmem_Phase-02_retrieval","2022.2.4","None",NA,1
"48","None","None","None","None","None","None","maps/google_map_1.png","None","objects/2/2_7.jpg","None","indoors","Bowl_Wooden.jpg","new",0,30,30,30,NA,NA,NA,NA,NA,NA,"",NA,NA,NA,NA,NA,NA,NA,NA,NA,"",NA,NA,NA,"",NA,NA,NA,"",NA,125.446781699997,124.533772499999,124.533772499999,124.533772499999,124.533772499999,124.533772499999,124.533772499999,124.533772499999,124.533772499999,124.533772499999,1,0.903475700004492,125.688461499994,NA,NA,NA,NA,"","",NA,NA,"",NA,194,"2022-12-23_11h05.26.540","PEmem_Phase-02_retrieval","2022.2.4","None",NA,1
"49","None","None","None","None","None","None","maps/google_map_1.png","None","objects/2/2_24.jpg","None","outdoors","Rake_Long.jpg","new",0,31,31,31,NA,NA,NA,NA,NA,NA,"",NA,NA,NA,NA,NA,NA,NA,NA,NA,"",NA,NA,NA,"",NA,NA,NA,"",NA,126.588243099999,125.946375,125.946375,125.946375,125.946375,125.946375,125.946375,125.946375,125.946375,125.946375,1,0.625716900001862,126.830165199994,NA,NA,NA,NA,"","",NA,NA,"",NA,194,"2022-12-23_11h05.26.540","PEmem_Phase-02_retrieval","2022.2.4","None",NA,1
"50","1.85026068615877","106.588235294118","196.588235294118","16.5882352941177","low","106.065899206554","maps/google_map_1.png","0.522336087563704","objects/1/1_14.jpg","0.0","outdoors","Bird_Peacock.jpg","old",0,32,32,32,0,0,0,0,NA,NA,"",NA,NA,NA,NA,NA,NA,NA,NA,NA,"",NA,NA,NA,"",NA,NA,NA,"",NA,128.030194399995,127.0816194,127.0816194,127.0816194,127.0816194,127.0816194,127.0816194,127.0816194,127.0816194,127.0816194,5,0.935604999998759,128.380534599994,128.380534599994,128.380534599994,128.380534599994,52.5,"['return']","[0.9941048000036972]",NA,NA,"",NA,194,"2022-12-23_11h05.26.540","PEmem_Phase-02_retrieval","2022.2.4","None",NA,1
"52","5.09060440001762","106.588235294118","196.588235294118","16.5882352941177","high","291.818086625214","maps/google_map_1.png","174.770148668904","objects/1/1_29.jpg","0.0","indoors","DogTreat.jpg","old",0,33,33,33,0,0,0,0,NA,NA,"",NA,NA,NA,NA,NA,NA,NA,NA,NA,"",NA,NA,NA,"",NA,NA,NA,"",NA,130.455182099999,129.6426498,129.6426498,129.6426498,129.6426498,129.6426498,129.6426498,129.6426498,129.6426498,129.6426498,5,0.797480700006417,130.806811799994,130.806811799994,130.806811799994,130.806811799994,10.5,"['return']","[0.8803417000017362]",NA,NA,"",NA,194,"2022-12-23_11h05.26.540","PEmem_Phase-02_retrieval","2022.2.4","None",NA,1
"54","5.38534920634921","106.588235294118","106.588235294118","172.957983193277","singletons","308.714285714286","maps/google_map_1.png","None","objects/1/1_138.jpg","0.0","indoors","Napkin_Single.jpg","old",0,34,34,34,0,0,0,0,NA,NA,"",NA,NA,NA,NA,NA,NA,NA,NA,NA,"",NA,NA,NA,"",NA,NA,NA,"",NA,132.613313799993,131.954399199996,131.954399199996,131.954399199996,131.954399199996,131.954399199996,131.954399199996,131.954399199996,131.954399199996,131.954399199996,5,0.646729400003096,132.966384499996,132.966384499996,132.966384499996,132.966384499996,327.5,"['return']","[1.706826399997226]",NA,NA,"",NA,194,"2022-12-23_11h05.26.540","PEmem_Phase-02_retrieval","2022.2.4","None",NA,1
"56","0.465245091162942","196.588235294118","286.588235294118","106.588235294118","high","26.6701007673024","maps/google_map_1.png","169.918134526815","objects/1/1_22.jpg","0.0","indoors","Vase_Decorative.jpg","old",0,35,35,35,0,0,0,0,NA,NA,"",NA,NA,NA,NA,NA,NA,NA,NA,NA,"",NA,NA,NA,"",NA,NA,NA,"",NA,137.463755699995,134.932356499994,134.932356499994,134.932356499994,134.932356499994,134.932356499994,134.932356499994,134.932356499994,134.932356499994,134.932356499994,5,2.51974870000413,137.8189079,137.8189079,137.8189079,137.8189079,26,"['return']","[1.0611527000073693]",NA,NA,"",NA,194,"2022-12-23_11h05.26.540","PEmem_Phase-02_retrieval","2022.2.4","None",NA,1
"58","4.27432731748544","196.588235294118","286.588235294118","106.588235294118","medium","245.025132849484","maps/google_map_1.png","48.4368975553661","objects/1/1_45.jpg","0.0","outdoors","Seashell_AlternateTellin.jpg","old",0,36,36,36,0,0,0,0,NA,NA,"",NA,NA,NA,NA,NA,NA,NA,NA,NA,"",NA,NA,NA,"",NA,NA,NA,"",NA,142.730292299995,139.149304399994,139.149304399994,139.149304399994,139.149304399994,139.149304399994,139.149304399994,139.149304399994,139.149304399994,139.149304399994,4,3.56601050000609,143.081841399995,143.081841399995,143.081841399995,143.081841399995,116.5,"['return']","[0.6835658000054536]",NA,NA,"",NA,194,"2022-12-23_11h05.26.540","PEmem_Phase-02_retrieval","2022.2.4","None",NA,1
"60","4.52594244313645","106.588235294118","196.588235294118","16.5882352941177","high","259.448929861325","maps/google_map_1.png","152.860694567207","objects/1/1_58.jpg","0.0","outdoors","Cloud.jpg","old",0,37,37,37,0,0,0,0,NA,NA,"",NA,NA,NA,NA,NA,NA,NA,NA,NA,"",NA,NA,NA,"",NA,NA,NA,"",NA,144.863677399997,144.030483999995,144.030483999995,144.030483999995,144.030483999995,144.030483999995,144.030483999995,144.030483999995,144.030483999995,144.030483999995,4,0.818314000003738,145.215450899996,145.215450899996,145.215450899996,145.215450899996,81,"['return']","[0.5974262000017916]",NA,NA,"",NA,194,"2022-12-23_11h05.26.540","PEmem_Phase-02_retrieval","2022.2.4","None",NA,1
"62","None","None","None","None","None","None","maps/google_map_1.png","None","objects/2/2_47.jpg","None","indoors","Almond.jpg","new",0,38,38,38,NA,NA,NA,NA,NA,NA,"",NA,NA,NA,NA,NA,NA,NA,NA,NA,"",NA,NA,NA,"",NA,NA,NA,"",NA,146.830162499995,146.080352099998,146.080352099998,146.080352099998,146.080352099998,146.080352099998,146.080352099998,146.080352099998,146.080352099998,146.080352099998,4,0.735426700004609,147.0718175,NA,NA,NA,NA,"","",NA,NA,"",NA,194,"2022-12-23_11h05.26.540","PEmem_Phase-02_retrieval","2022.2.4","None",NA,0
"63","None","None","None","None","None","None","maps/google_map_1.png","None","objects/2/2_107.jpg","None","indoors","Card_TwoSpade.jpg","new",0,39,39,39,NA,NA,NA,NA,NA,NA,"",NA,NA,NA,NA,NA,NA,NA,NA,NA,"",NA,NA,NA,"",NA,NA,NA,"",NA,149.138633299997,147.330118799997,147.330118799997,147.330118799997,147.330118799997,147.330118799997,147.330118799997,147.330118799997,147.330118799997,147.330118799997,1,1.79886380000244,149.380396199995,NA,NA,NA,NA,"","",NA,NA,"",NA,194,"2022-12-23_11h05.26.540","PEmem_Phase-02_retrieval","2022.2.4","None",NA,1
"64","3.28721990618805","196.588235294118","286.588235294118","106.588235294118","low","188.43935767957","maps/google_map_1.png","8.14887761454778","objects/1/1_56.jpg","0.0","indoors","Case_CD.jpg","old",0,40,40,40,0,0,0,0,NA,NA,"",NA,NA,NA,NA,NA,NA,NA,NA,NA,"",NA,NA,NA,"",NA,NA,NA,"",NA,150.780329399997,149.642456899994,149.642456899994,149.642456899994,149.642456899994,149.642456899994,149.642456899994,149.642456899994,149.642456899994,149.642456899994,5,1.12284090000321,151.133164699997,151.133164699997,151.133164699997,151.133164699997,169,"['return']","[0.6569386000046507]",NA,NA,"",NA,194,"2022-12-23_11h05.26.540","PEmem_Phase-02_retrieval","2022.2.4","None",NA,1
"66","1.90771760203764","106.588235294118","196.588235294118","16.5882352941177","low","109.35960776012","maps/google_map_1.png","2.77137246600208","objects/1/1_48.jpg","0.0","indoors","Corkscrew.jpg","old",0,41,41,41,0,0,0,0,NA,NA,"",NA,NA,NA,NA,NA,NA,NA,NA,NA,"",NA,NA,NA,"",NA,NA,NA,"",NA,152.955405099994,152.047777,152.047777,152.047777,152.047777,152.047777,152.047777,152.047777,152.047777,152.047777,4,0.89535280000564,153.306063699994,153.306063699994,153.306063699994,153.306063699994,165.5,"['return']","[0.8982998999999836]",NA,NA,"",NA,194,"2022-12-23_11h05.26.540","PEmem_Phase-02_retrieval","2022.2.4","None",NA,1
"68","1.97891146826048","106.588235294118","196.588235294118","16.5882352941177","low","113.440784804741","maps/google_map_1.png","6.85254951062351","objects/1/1_142.jpg","0.0","outdoors","Cannon.jpg","old",0,42,42,42,0,0,0,0,NA,NA,"",NA,NA,NA,NA,NA,NA,NA,NA,NA,"",NA,NA,NA,"",NA,NA,NA,"",NA,155.705360299995,154.480254999995,154.480254999995,154.480254999995,154.480254999995,154.480254999995,154.480254999995,154.480254999995,154.480254999995,154.480254999995,6,1.20994970000902,156.055508899997,156.055508899997,156.055508899997,156.055508899997,142,"['return']","[0.7130535000032978]",NA,NA,"",NA,194,"2022-12-23_11h05.26.540","PEmem_Phase-02_retrieval","2022.2.4","None",NA,1
"70","None","None","None","None","None","None","maps/google_map_1.png","None","objects/2/2_106.jpg","None","outdoors","Sled.jpg","new",0,43,43,43,NA,NA,NA,NA,NA,NA,"",NA,NA,NA,NA,NA,NA,NA,NA,NA,"",NA,NA,NA,"",NA,NA,NA,"",NA,158.4054483,157.037946199998,157.037946199998,157.037946199998,157.037946199998,157.037946199998,157.037946199998,157.037946199998,157.037946199998,157.037946199998,1,1.35459019999689,158.646981499995,NA,NA,NA,NA,"","",NA,NA,"",NA,194,"2022-12-23_11h05.26.540","PEmem_Phase-02_retrieval","2022.2.4","None",NA,1
"71","None","None","None","None","None","None","maps/google_map_1.png","None","objects/2/2_83.jpg","None","outdoors","Bird_CanadianGoose.jpg","new",0,44,44,44,NA,NA,NA,NA,NA,NA,"",NA,NA,NA,NA,NA,NA,NA,NA,NA,"",NA,NA,NA,"",NA,NA,NA,"",NA,160.430450599997,158.907311499999,158.907311499999,158.907311499999,158.907311499999,158.907311499999,158.907311499999,158.907311499999,158.907311499999,158.907311499999,5,1.51306080000359,160.673124699999,NA,NA,NA,NA,"","",NA,NA,"",NA,194,"2022-12-23_11h05.26.540","PEmem_Phase-02_retrieval","2022.2.4","None",NA,0
"72","None","None","None","None","None","None","maps/google_map_1.png","None","objects/2/2_97.jpg","None","indoors","Cracker_Saltine.jpg","new",0,45,45,45,NA,NA,NA,NA,NA,NA,"",NA,NA,NA,NA,NA,NA,NA,NA,NA,"",NA,NA,NA,"",NA,NA,NA,"",NA,163.738627599996,160.938323999995,160.938323999995,160.938323999995,160.938323999995,160.938323999995,160.938323999995,160.938323999995,160.938323999995,160.938323999995,1,2.78436250000232,163.980589499995,NA,NA,NA,NA,"","",NA,NA,"",NA,194,"2022-12-23_11h05.26.540","PEmem_Phase-02_retrieval","2022.2.4","None",NA,1
"73","5.6893367560835","196.588235294118","286.588235294118","106.588235294118","medium","326.140323597143","maps/google_map_1.png","129.552088303026","objects/1/1_32.jpg","0.0","indoors","Skirt_Long.jpg","old",0,46,46,46,0,0,0,0,NA,NA,"",NA,NA,NA,NA,NA,NA,NA,NA,NA,"",NA,NA,NA,"",NA,NA,NA,"",NA,165.288643,164.238960699993,164.238960699993,164.238960699993,164.238960699993,164.238960699993,164.238960699993,164.238960699993,164.238960699993,164.238960699993,5,1.04214390000561,165.645323999997,165.645323999997,165.645323999997,165.645323999997,29.5,"['return']","[0.6374953000049572]",NA,NA,"",NA,194,"2022-12-23_11h05.26.540","PEmem_Phase-02_retrieval","2022.2.4","None",NA,1
"75","None","None","None","None","None","None","maps/google_map_1.png","None","objects/2/2_132.jpg","None","outdoors","Chimpanzee.jpg","new",0,47,47,47,NA,NA,NA,NA,NA,NA,"",NA,NA,NA,NA,NA,NA,NA,NA,NA,"",NA,NA,NA,"",NA,NA,NA,"",NA,168.530509599994,166.557688599998,166.557688599998,166.557688599998,166.557688599998,166.557688599998,166.557688599998,166.557688599998,166.557688599998,166.557688599998,1,1.95835400000215,168.7723186,NA,NA,NA,NA,"","",NA,NA,"",NA,194,"2022-12-23_11h05.26.540","PEmem_Phase-02_retrieval","2022.2.4","None",NA,1
"76","5.40287027476807","196.588235294118","286.588235294118","106.588235294118","medium","309.718678171418","maps/google_map_1.png","113.1304428773","objects/1/1_132.jpg","0.0","indoors","PanCooking.jpg","old",0,48,48,48,0,0,0,0,NA,NA,"",NA,NA,NA,NA,NA,NA,NA,NA,NA,"",NA,NA,NA,"",NA,NA,NA,"",NA,169.6636841,169.036632199997,169.036632199997,169.036632199997,169.036632199997,169.036632199997,169.036632199997,169.036632199997,169.036632199997,169.036632199997,1,0.614362600004824,170.015031699993,170.015031699993,170.015031699993,170.015031699993,61.5,"['return']","[0.8806151000026148]",NA,NA,"",NA,194,"2022-12-23_11h05.26.540","PEmem_Phase-02_retrieval","2022.2.4","None",NA,0
"78","1.75411951447246","196.588235294118","16.5882352941177","230.27731092437","singletons","100.554621848739","maps/google_map_1.png","None","objects/1/1_92.jpg","0.0","outdoors","Iguana.jpg","old",0,49,49,49,0,0,0,0,NA,NA,"",NA,NA,NA,NA,NA,NA,NA,NA,NA,"",NA,NA,NA,"",NA,NA,NA,"",NA,172.372039899994,171.182410899994,171.182410899994,171.182410899994,171.182410899994,171.182410899994,171.182410899994,171.182410899994,171.182410899994,171.182410899994,1,1.17373509999743,172.721842999999,172.721842999999,172.721842999999,172.721842999999,313,"['return']","[1.4700336000023526]",NA,NA,"",NA,194,"2022-12-23_11h05.26.540","PEmem_Phase-02_retrieval","2022.2.4","None",NA,0
"80","None","None","None","None","None","None","maps/google_map_1.png","None","objects/2/2_105.jpg","None","indoors","Stool_Wood.jpg","new",0,50,50,50,NA,NA,NA,NA,NA,NA,"",NA,NA,NA,NA,NA,NA,NA,NA,NA,"",NA,NA,NA,"",NA,NA,NA,"",NA,175.063606999996,174.457203399994,174.457203399994,174.457203399994,174.457203399994,174.457203399994,174.457203399994,174.457203399994,174.457203399994,174.457203399994,1,0.590916400004062,175.305603999994,NA,NA,NA,NA,"","",NA,NA,"",NA,194,"2022-12-23_11h05.26.540","PEmem_Phase-02_retrieval","2022.2.4","None",NA,1
"81","4.84131834524669","106.588235294118","196.588235294118","16.5882352941177","high","277.527803230702","maps/google_map_1.png","170.939567936584","objects/1/1_95.jpg","0.0","indoors","Arm.jpg","old",0,51,51,51,0,0,0,0,NA,NA,"",NA,NA,NA,NA,NA,NA,NA,NA,NA,"",NA,NA,NA,"",NA,NA,NA,"",NA,176.4972241,175.556792399999,175.556792399999,175.556792399999,175.556792399999,175.556792399999,175.556792399999,175.556792399999,175.556792399999,175.556792399999,4,0.931552699999884,176.846519699997,176.846519699997,176.846519699997,176.846519699997,278.5,"['return']","[1.0624144000030356]",NA,NA,"",NA,194,"2022-12-23_11h05.26.540","PEmem_Phase-02_retrieval","2022.2.4","None",NA,1
"83","0.529243665397953","196.588235294118","286.588235294118","106.588235294118","high","30.3388088444686","maps/google_map_1.png","166.249426449649","objects/1/1_73.jpg","0.0","outdoors","Teardrop.jpg","old",0,52,52,52,0,0,0,0,NA,NA,"",NA,NA,NA,NA,NA,NA,NA,NA,NA,"",NA,NA,NA,"",NA,NA,NA,"",NA,179.097294799998,178.188686899994,178.188686899994,178.188686899994,178.188686899994,178.188686899994,178.188686899994,178.188686899994,178.188686899994,178.188686899994,5,0.893107299998519,179.448306799997,179.448306799997,179.448306799997,179.448306799997,213.5,"['return']","[0.7349249000035343]",NA,NA,"",NA,194,"2022-12-23_11h05.26.540","PEmem_Phase-02_retrieval","2022.2.4","None",NA,1
"85","None","None","None","None","None","None","maps/google_map_1.png","None","objects/2/2_56.jpg","None","outdoors","Arch_Triomphe.jpg","new",0,53,53,53,NA,NA,NA,NA,NA,NA,"",NA,NA,NA,NA,NA,NA,NA,NA,NA,"",NA,NA,NA,"",NA,NA,NA,"",NA,181.672288299997,180.439998899994,180.439998899994,180.439998899994,180.439998899994,180.439998899994,180.439998899994,180.439998899994,180.439998899994,180.439998899994,1,1.21714510000311,181.914087999998,NA,NA,NA,NA,"","",NA,NA,"",NA,194,"2022-12-23_11h05.26.540","PEmem_Phase-02_retrieval","2022.2.4","None",NA,1
"86","4.28019234360411","106.588235294118","286.588235294118","145.806722689076","singletons","245.361344537815","maps/google_map_1.png","None","objects/1/1_39.jpg","0.0","indoors","Clip_Binder.jpg","old",0,54,54,54,0,0,0,0,NA,NA,"",NA,NA,NA,NA,NA,NA,NA,NA,NA,"",NA,NA,NA,"",NA,NA,NA,"",NA,186.672528699994,182.174038999998,182.174038999998,182.174038999998,182.174038999998,182.174038999998,182.174038999998,182.174038999998,182.174038999998,182.174038999998,5,4.48337700000411,187.024963899996,187.024963899996,187.024963899996,187.024963899996,261,"['return']","[2.528272300005483]",NA,NA,"",NA,194,"2022-12-23_11h05.26.540","PEmem_Phase-02_retrieval","2022.2.4","None",NA,1
"88","None","None","None","None","None","None","maps/google_map_1.png","None","objects/2/2_35.jpg","None","indoors","Comb_1.jpg","new",0,55,55,55,NA,NA,NA,NA,NA,NA,"",NA,NA,NA,NA,NA,NA,NA,NA,NA,"",NA,NA,NA,"",NA,NA,NA,"",NA,190.947535799998,189.823684699993,189.823684699993,189.823684699993,189.823684699993,189.823684699993,189.823684699993,189.823684699993,189.823684699993,189.823684699993,1,1.11542480000207,191.189097899994,NA,NA,NA,NA,"","",NA,NA,"",NA,194,"2022-12-23_11h05.26.540","PEmem_Phase-02_retrieval","2022.2.4","None",NA,1
"89","None","None","None","None","None","None","maps/google_map_1.png","None","objects/2/2_113.jpg","None","outdoors","Leaf_Yellow.jpg","new",0,56,56,56,NA,NA,NA,NA,NA,NA,"",NA,NA,NA,NA,NA,NA,NA,NA,NA,"",NA,NA,NA,"",NA,NA,NA,"",NA,191.988954599998,191.448464899993,191.448464899993,191.448464899993,191.448464899993,191.448464899993,191.448464899993,191.448464899993,191.448464899993,191.448464899993,1,0.524530100003176,192.230900199997,NA,NA,NA,NA,"","",NA,NA,"",NA,194,"2022-12-23_11h05.26.540","PEmem_Phase-02_retrieval","2022.2.4","None",NA,1
"90","1.27939571389104","106.588235294118","196.588235294118","16.5882352941177","low","73.341155573372","maps/google_map_1.png","33.2470797207457","objects/1/1_89.jpg","0.0","outdoors","Hubcap.jpg","old",0,57,57,57,0,0,0,0,NA,NA,"",NA,NA,NA,NA,NA,NA,NA,NA,NA,"",NA,NA,NA,"",NA,NA,NA,"",NA,193.489035499995,192.482290399996,192.482290399996,192.482290399996,192.482290399996,192.482290399996,192.482290399996,192.482290399996,192.482290399996,192.482290399996,5,0.990891200002807,193.843707499997,193.843707499997,193.843707499997,193.843707499997,312.5,"['return']","[1.487577700005204]",NA,NA,"",NA,194,"2022-12-23_11h05.26.540","PEmem_Phase-02_retrieval","2022.2.4","None",NA,1
"92","3.1790035196177","196.588235294118","286.588235294118","106.588235294118","low","182.235870551333","maps/google_map_1.png","14.3523647427846","objects/1/1_24.jpg","0.0","outdoors","Igloo.jpg","old",0,58,58,58,0,0,0,0,NA,NA,"",NA,NA,NA,NA,NA,NA,NA,NA,NA,"",NA,NA,NA,"",NA,NA,NA,"",NA,198.664133899998,195.598563599997,195.598563599997,195.598563599997,195.598563599997,195.598563599997,195.598563599997,195.598563599997,195.598563599997,195.598563599997,5,3.04983000000357,199.015396799994,199.015396799994,199.015396799994,199.015396799994,154.5,"['return']","[0.8906835000016144]",NA,NA,"",NA,194,"2022-12-23_11h05.26.540","PEmem_Phase-02_retrieval","2022.2.4","None",NA,1
"94","4.82372719583087","106.588235294118","196.588235294118","16.5882352941177","high","276.519393391579","maps/google_map_1.png","169.931158097461","objects/1/1_40.jpg","0.0","outdoors","LicensePlate.jpg","old",0,59,59,59,0,0,0,0,NA,NA,"",NA,NA,NA,NA,NA,NA,NA,NA,NA,"",NA,NA,NA,"",NA,NA,NA,"",NA,202.005893199996,200.172638199998,200.172638199998,200.172638199998,200.172638199998,200.172638199998,200.172638199998,200.172638199998,200.172638199998,200.172638199998,6,1.81718969999929,202.368962499997,202.368962499997,202.368962499997,202.368962499997,271.5,"['return']","[1.9739399000027333]",NA,NA,"",NA,194,"2022-12-23_11h05.26.540","PEmem_Phase-02_retrieval","2022.2.4","None",NA,1
"96","2.85927637721755","106.588235294118","286.588235294118","311.731092436975","singletons","163.90756302521","maps/google_map_1.png","None","objects/1/1_19.jpg","0.0","outdoors","Birdhouse.jpg","old",0,60,60,60,0,0,0,0,NA,NA,"",NA,NA,NA,NA,NA,NA,NA,NA,NA,"",NA,NA,NA,"",NA,NA,NA,"",NA,206.580901599998,204.613898199997,204.613898199997,204.613898199997,204.613898199997,204.613898199997,204.613898199997,204.613898199997,204.613898199997,204.613898199997,4,1.95402840000315,206.9314896,206.9314896,206.9314896,206.9314896,97,"['return']","[0.7588315000029979]",NA,NA,"",NA,194,"2022-12-23_11h05.26.540","PEmem_Phase-02_retrieval","2022.2.4","None",NA,1
"98","None","None","None","None","None","None","maps/google_map_1.png","None","objects/2/2_119.jpg","None","outdoors","Lobster.jpg","new",0,61,61,61,NA,NA,NA,NA,NA,NA,"",NA,NA,NA,NA,NA,NA,NA,NA,NA,"",NA,NA,NA,"",NA,NA,NA,"",NA,209.064189499994,207.955945599999,207.955945599999,207.955945599999,207.955945599999,207.955945599999,207.955945599999,207.955945599999,207.955945599999,207.955945599999,1,1.09469990000071,209.305998899996,NA,NA,NA,NA,"","",NA,NA,"",NA,194,"2022-12-23_11h05.26.540","PEmem_Phase-02_retrieval","2022.2.4","None",NA,1
"99","1.28048085901027","106.588235294118","106.588235294118","275.529411764706","singletons","73.4033613445378","maps/google_map_1.png","None","objects/1/1_101.jpg","0.0","indoors","Accordion.jpg","old",0,62,62,62,0,0,0,0,NA,NA,"",NA,NA,NA,NA,NA,NA,NA,NA,NA,"",NA,NA,NA,"",NA,NA,NA,"",NA,210.730963799993,209.5579717,209.5579717,209.5579717,209.5579717,209.5579717,209.5579717,209.5579717,209.5579717,209.5579717,5,1.15947280000546,211.081637799994,211.081637799994,211.081637799994,211.081637799994,127,"['return']","[1.0723118000023533]",NA,NA,"",NA,194,"2022-12-23_11h05.26.540","PEmem_Phase-02_retrieval","2022.2.4","None",NA,1
"101","None","None","None","None","None","None","maps/google_map_1.png","None","objects/2/2_12.jpg","None","outdoors","Butterfly.jpg","new",0,63,63,63,NA,NA,NA,NA,NA,NA,"",NA,NA,NA,NA,NA,NA,NA,NA,NA,"",NA,NA,NA,"",NA,NA,NA,"",NA,213.530985699996,212.415859199995,212.415859199995,212.415859199995,212.415859199995,212.415859199995,212.415859199995,212.415859199995,212.415859199995,212.415859199995,5,1.09906620000402,213.772429999997,NA,NA,NA,NA,"","",NA,NA,"",NA,194,"2022-12-23_11h05.26.540","PEmem_Phase-02_retrieval","2022.2.4","None",NA,0
"102","3.70261028842883","196.588235294118","286.588235294118","106.588235294118","low","212.251545196557","maps/google_map_1.png","15.6633099024395","objects/1/1_80.jpg","0.0","indoors","Tofu.jpg","old",0,64,64,64,0,0,0,0,NA,NA,"",NA,NA,NA,NA,NA,NA,NA,NA,NA,"",NA,NA,NA,"",NA,NA,NA,"",NA,215.405994199995,214.023309699995,214.023309699995,214.023309699995,214.023309699995,214.023309699995,214.023309699995,214.023309699995,214.023309699995,214.023309699995,6,1.37245149999944,215.757677599999,215.757677599999,215.757677599999,215.757677599999,179.5,"['return']","[1.4139460000005784]",NA,NA,"",NA,194,"2022-12-23_11h05.26.540","PEmem_Phase-02_retrieval","2022.2.4","None",NA,1
"104","None","None","None","None","None","None","maps/google_map_1.png","None","objects/2/2_62.jpg","None","indoors","PillBottle_Closed.jpg","new",0,65,65,65,NA,NA,NA,NA,NA,NA,"",NA,NA,NA,NA,NA,NA,NA,NA,NA,"",NA,NA,NA,"",NA,NA,NA,"",NA,223.447584499998,217.440331899998,217.440331899998,217.440331899998,217.440331899998,217.440331899998,217.440331899998,217.440331899998,217.440331899998,217.440331899998,4,5.9934362999993,223.689406799997,NA,NA,NA,NA,"","",NA,NA,"",NA,194,"2022-12-23_11h05.26.540","PEmem_Phase-02_retrieval","2022.2.4","None",NA,0
"105","None","None","None","None","None","None","maps/google_map_1.png","None","objects/1/1_93.jpg","None","outdoors","Oars.jpg","new",0,66,66,66,NA,NA,NA,NA,NA,NA,"",NA,NA,NA,NA,NA,NA,NA,NA,NA,"",NA,NA,NA,"",NA,NA,NA,"",NA,226.122726899994,223.948960399997,223.948960399997,223.948960399997,223.948960399997,223.948960399997,223.948960399997,223.948960399997,223.948960399997,223.948960399997,1,2.15736319999996,226.364530699997,NA,NA,NA,NA,"","",NA,NA,"",NA,194,"2022-12-23_11h05.26.540","PEmem_Phase-02_retrieval","2022.2.4","None",NA,1
"106","None","None","None","None","None","None","maps/google_map_1.png","None","objects/2/2_127.jpg","None","outdoors","Seal_Toy.jpg","new",0,67,67,67,NA,NA,NA,NA,NA,NA,"",NA,NA,NA,NA,NA,NA,NA,NA,NA,"",NA,NA,NA,"",NA,NA,NA,"",NA,227.348725399999,226.616863099996,226.616863099996,226.616863099996,226.616863099996,226.616863099996,226.616863099996,226.616863099996,226.616863099996,226.616863099996,1,0.720995000003313,227.589465899997,NA,NA,NA,NA,"","",NA,NA,"",NA,194,"2022-12-23_11h05.26.540","PEmem_Phase-02_retrieval","2022.2.4","None",NA,1
"107","3.1847430795494","196.588235294118","286.588235294118","106.588235294118","low","182.564889910475","maps/google_map_1.png","14.0233453836423","objects/1/1_41.jpg","0.0","indoors","FloppyDisk.jpg","old",0,68,68,68,0,0,0,0,NA,NA,"",NA,NA,NA,NA,NA,NA,NA,NA,NA,"",NA,NA,NA,"",NA,NA,NA,"",NA,228.864325799994,227.848500799999,227.848500799999,227.848500799999,227.848500799999,227.848500799999,227.848500799999,227.848500799999,227.848500799999,227.848500799999,5,1.00546060000488,229.215773399999,229.215773399999,229.215773399999,229.215773399999,72.5,"['return']","[0.8218964000043343]",NA,NA,"",NA,194,"2022-12-23_11h05.26.540","PEmem_Phase-02_retrieval","2022.2.4","None",NA,1
"109","1.96677191954934","106.588235294118","196.588235294118","16.5882352941177","low","112.744887107924","maps/google_map_1.png","6.15665181380602","objects/1/1_3.jpg","0.0","outdoors","Pig.jpg","old",0,69,69,69,0,0,0,0,NA,NA,"",NA,NA,NA,NA,NA,NA,NA,NA,NA,"",NA,NA,NA,"",NA,NA,NA,"",NA,231.214296999999,230.306575299997,230.306575299997,230.306575299997,230.306575299997,230.306575299997,230.306575299997,230.306575299997,230.306575299997,230.306575299997,6,0.892907800007379,231.564860499995,231.564860499995,231.564860499995,231.564860499995,155,"['return']","[1.1212893000047188]",NA,NA,"",NA,194,"2022-12-23_11h05.26.540","PEmem_Phase-02_retrieval","2022.2.4","None",NA,1
"111","0.227950513538749","106.588235294118","286.588235294118","10.0504201680672","singletons","13.0672268907563","maps/google_map_1.png","None","objects/1/1_119.jpg","0.0","outdoors","Archery_ArrowsBows.jpg","old",0,70,70,70,0,0,0,0,NA,NA,"",NA,NA,NA,NA,NA,NA,NA,NA,NA,"",NA,NA,NA,"",NA,NA,NA,"",NA,233.681214699995,232.9658757,232.9658757,232.9658757,232.9658757,232.9658757,232.9658757,232.9658757,232.9658757,232.9658757,6,0.699934800002666,234.032119899995,234.032119899995,234.032119899995,234.032119899995,296.5,"['return']","[1.239625000001979]",NA,NA,"",NA,194,"2022-12-23_11h05.26.540","PEmem_Phase-02_retrieval","2022.2.4","None",NA,1
"113","None","None","None","None","None","None","maps/google_map_1.png","None","objects/2/2_134.jpg","None","outdoors","Scorpion.jpg","new",0,71,71,71,NA,NA,NA,NA,NA,NA,"",NA,NA,NA,NA,NA,NA,NA,NA,NA,"",NA,NA,NA,"",NA,NA,NA,"",NA,236.889489299996,235.540490699997,235.540490699997,235.540490699997,235.540490699997,235.540490699997,235.540490699997,235.540490699997,235.540490699997,235.540490699997,1,1.33507760000066,237.131194899994,NA,NA,NA,NA,"","",NA,NA,"",NA,194,"2022-12-23_11h05.26.540","PEmem_Phase-02_retrieval","2022.2.4","None",NA,1
"114","None","None","None","None","None","None","maps/google_map_1.png","None","objects/2/2_1.jpg","None","indoors","Cast.jpg","new",0,72,72,72,NA,NA,NA,NA,NA,NA,"",NA,NA,NA,NA,NA,NA,NA,NA,NA,"",NA,NA,NA,"",NA,NA,NA,"",NA,238.422974599998,237.382730499994,237.382730499994,237.382730499994,237.382730499994,237.382730499994,237.382730499994,237.382730499994,237.382730499994,237.382730499994,1,1.03185320000193,238.664500299994,NA,NA,NA,NA,"","",NA,NA,"",NA,194,"2022-12-23_11h05.26.540","PEmem_Phase-02_retrieval","2022.2.4","None",NA,1
"115","None","None","None","None","None","None","maps/google_map_1.png","None","objects/2/2_40.jpg","None","outdoors","TrapAnimal.jpg","new",0,73,73,73,NA,NA,NA,NA,NA,NA,"",NA,NA,NA,NA,NA,NA,NA,NA,NA,"",NA,NA,NA,"",NA,NA,NA,"",NA,239.514568699997,238.923481999998,238.923481999998,238.923481999998,238.923481999998,238.923481999998,238.923481999998,238.923481999998,238.923481999998,238.923481999998,1,0.576882700006536,239.756380799998,NA,NA,NA,NA,"","",NA,NA,"",NA,194,"2022-12-23_11h05.26.540","PEmem_Phase-02_retrieval","2022.2.4","None",NA,1
"116","6.06234695739797","196.588235294118","286.588235294118","106.588235294118","high","347.523073990966","maps/google_map_1.png","150.934838696849","objects/1/1_72.jpg","0.0","outdoors","Sheep.jpg","old",0,74,74,74,0,0,0,0,NA,NA,"",NA,NA,NA,NA,NA,NA,NA,NA,NA,"",NA,NA,NA,"",NA,NA,NA,"",NA,240.664612799999,240.016842099998,240.016842099998,240.016842099998,240.016842099998,240.016842099998,240.016842099998,240.016842099998,240.016842099998,240.016842099998,1,0.638207600000896,241.015056299999,241.015056299999,241.015056299999,241.015056299999,216,"['return']","[1.1872646000047098]",NA,NA,"",NA,194,"2022-12-23_11h05.26.540","PEmem_Phase-02_retrieval","2022.2.4","None",NA,0
"118","3.66746988636194","106.588235294118","196.588235294118","16.5882352941177","medium","210.237127243678","maps/google_map_1.png","103.64889194956","objects/1/1_28.jpg","0.0","outdoors","Boat_Sail.jpg","old",0,75,75,75,0,0,0,0,NA,NA,"",NA,NA,NA,NA,NA,NA,NA,NA,NA,"",NA,NA,NA,"",NA,NA,NA,"",NA,243.514715099998,242.4722597,242.4722597,242.4722597,242.4722597,242.4722597,242.4722597,242.4722597,242.4722597,242.4722597,4,1.03230220000114,243.868059999993,243.868059999993,243.868059999993,243.868059999993,265.5,"['return']","[0.63573069999984]",NA,NA,"",NA,194,"2022-12-23_11h05.26.540","PEmem_Phase-02_retrieval","2022.2.4","None",NA,1
"120","5.60310836795936","196.588235294118","286.588235294118","106.588235294118","medium","321.197294978562","maps/google_map_1.png","124.609059684444","objects/1/1_64.jpg","0.0","indoors","Calculator.jpg","old",0,76,76,76,0,0,0,0,NA,NA,"",NA,NA,NA,NA,NA,NA,NA,NA,NA,"",NA,NA,NA,"",NA,NA,NA,"",NA,246.214663999999,244.774039599994,244.774039599994,244.774039599994,244.774039599994,244.774039599994,244.774039599994,244.774039599994,244.774039599994,244.774039599994,6,1.43003640000097,246.565769299996,246.565769299996,246.565769299996,246.565769299996,289.5,"['return']","[2.3400576999993064]",NA,NA,"",NA,194,"2022-12-23_11h05.26.540","PEmem_Phase-02_retrieval","2022.2.4","None",NA,1
"122","3.59756981419156","196.588235294118","286.588235294118","106.588235294118","low","206.230116737096","maps/google_map_1.png","9.64188144297793","objects/1/1_113.jpg","0.0","indoors","Toilet.jpg","old",0,77,77,77,0,0,0,0,NA,NA,"",NA,NA,NA,NA,NA,NA,NA,NA,NA,"",NA,NA,NA,"",NA,NA,NA,"",NA,250.214583599998,249.172873999996,249.172873999996,249.172873999996,249.172873999996,249.172873999996,249.172873999996,249.172873999996,249.172873999996,249.172873999996,6,1.03040270000201,250.565781399993,250.565781399993,250.565781399993,250.565781399993,170,"['return']","[0.8165201000010711]",NA,NA,"",NA,194,"2022-12-23_11h05.26.540","PEmem_Phase-02_retrieval","2022.2.4","None",NA,1
"124","None","None","None","None","None","None","maps/google_map_1.png","None","objects/2/2_37.jpg","None","indoors","Spoon_WoodenLight.jpg","new",0,78,78,78,NA,NA,NA,NA,NA,NA,"",NA,NA,NA,NA,NA,NA,NA,NA,NA,"",NA,NA,NA,"",NA,NA,NA,"",NA,252.806342199998,251.641407499999,251.641407499999,251.641407499999,251.641407499999,251.641407499999,251.641407499999,251.641407499999,251.641407499999,251.641407499999,1,1.15384860000631,253.048176899996,NA,NA,NA,NA,"","",NA,NA,"",NA,194,"2022-12-23_11h05.26.540","PEmem_Phase-02_retrieval","2022.2.4","None",NA,1
"125","1.2278543417367","106.588235294118","106.588235294118","106.588235294118","singletons","70.3865546218487","maps/google_map_1.png","None","objects/1/1_31.jpg","0.0","indoors","RugRoled.jpg","old",0,79,79,79,0,0,0,0,NA,NA,"",NA,NA,NA,NA,NA,NA,NA,NA,NA,"",NA,NA,NA,"",NA,NA,NA,"",NA,254.489719099998,253.310501099993,253.310501099993,253.310501099993,253.310501099993,253.310501099993,253.310501099993,253.310501099993,253.310501099993,253.310501099993,5,1.16841050000949,254.844777399994,254.844777399994,254.844777399994,254.844777399994,144.5,"['return']","[0.9182445999977062]",NA,NA,"",NA,194,"2022-12-23_11h05.26.540","PEmem_Phase-02_retrieval","2022.2.4","None",NA,1
"127","2.38563772175537","106.588235294118","16.5882352941177","106.588235294118","singletons","136.756302521008","maps/google_map_1.png","None","objects/1/1_99.jpg","0.0","indoors","Toy_DollHomeMade.jpg","old",0,80,80,80,0,0,0,0,NA,NA,"",NA,NA,NA,NA,NA,NA,NA,NA,NA,"",NA,NA,NA,"",NA,NA,NA,"",NA,257.156465599997,256.024176199993,256.024176199993,256.024176199993,256.024176199993,256.024176199993,256.024176199993,256.024176199993,256.024176199993,256.024176199993,6,1.12318380000215,257.5085636,257.5085636,257.5085636,257.5085636,159.5,"['return']","[2.344562500002212]",NA,NA,"",NA,194,"2022-12-23_11h05.26.540","PEmem_Phase-02_retrieval","2022.2.4","None",NA,1
"129","None","None","None","None","None","None","maps/google_map_1.png","None","objects/2/2_6.jpg","None","outdoors","Bicycle_Kids.jpg","new",0,81,81,81,NA,NA,NA,NA,NA,NA,"",NA,NA,NA,NA,NA,NA,NA,NA,NA,"",NA,NA,NA,"",NA,NA,NA,"",NA,261.456389999999,260.1306463,260.1306463,260.1306463,260.1306463,260.1306463,260.1306463,260.1306463,260.1306463,260.1306463,1,1.31168510000134,261.698181899999,NA,NA,NA,NA,"","",NA,NA,"",NA,194,"2022-12-23_11h05.26.540","PEmem_Phase-02_retrieval","2022.2.4","None",NA,1
"130","None","None","None","None","None","None","maps/google_map_1.png","None","objects/2/2_17.jpg","None","outdoors","ManholeCover.jpg","new",0,82,82,82,NA,NA,NA,NA,NA,NA,"",NA,NA,NA,NA,NA,NA,NA,NA,NA,"",NA,NA,NA,"",NA,NA,NA,"",NA,262.523098099999,261.9614114,261.9614114,261.9614114,261.9614114,261.9614114,261.9614114,261.9614114,261.9614114,261.9614114,1,0.546428900001047,262.764976999999,NA,NA,NA,NA,"","",NA,NA,"",NA,194,"2022-12-23_11h05.26.540","PEmem_Phase-02_retrieval","2022.2.4","None",NA,1
"131","None","None","None","None","None","None","maps/google_map_1.png","None","objects/2/2_46.jpg","None","indoors","Blanket.jpg","new",0,83,83,83,NA,NA,NA,NA,NA,NA,"",NA,NA,NA,NA,NA,NA,NA,NA,NA,"",NA,NA,NA,"",NA,NA,NA,"",NA,263.593196599999,263.024075599998,263.024075599998,263.024075599998,263.024075599998,263.024075599998,263.024075599998,263.024075599998,263.024075599998,263.024075599998,1,0.559955400007311,263.839790499995,NA,NA,NA,NA,"","",NA,NA,"",NA,194,"2022-12-23_11h05.26.540","PEmem_Phase-02_retrieval","2022.2.4","None",NA,1
"132","1.74190397752487","106.588235294118","196.588235294118","16.5882352941177","low","99.8543681383682","maps/google_map_1.png","6.73386715574942","objects/1/1_109.jpg","0.0","outdoors","Camel_Dromedary.jpg","old",0,84,84,84,0,0,0,0,NA,NA,"",NA,NA,NA,NA,NA,NA,NA,NA,NA,"",NA,NA,NA,"",NA,NA,NA,"",NA,264.973184199996,264.091896899998,264.091896899998,264.091896899998,264.091896899998,264.091896899998,264.091896899998,264.091896899998,264.091896899998,264.091896899998,5,0.867427100005443,265.3299491,265.3299491,265.3299491,265.3299491,60.5,"['return']","[0.7966656000062358]",NA,NA,"",NA,194,"2022-12-23_11h05.26.540","PEmem_Phase-02_retrieval","2022.2.4","None",NA,1
"134","1.78332170123487","106.588235294118","196.588235294118","16.5882352941177","low","102.228632554865","maps/google_map_1.png","4.35960273925228","objects/1/1_10.jpg","0.0","outdoors","Fish_Rockbass.jpg","old",0,85,85,85,0,0,0,0,NA,NA,"",NA,NA,NA,NA,NA,NA,NA,NA,NA,"",NA,NA,NA,"",NA,NA,NA,"",NA,267.2148523,266.389414799996,266.389414799996,266.389414799996,266.389414799996,266.389414799996,266.389414799996,266.389414799996,266.389414799996,266.389414799996,6,0.810458100000687,267.5704119,267.5704119,267.5704119,267.5704119,134,"['return']","[1.052284300007159]",NA,NA,"",NA,194,"2022-12-23_11h05.26.540","PEmem_Phase-02_retrieval","2022.2.4","None",NA,1
"136","None","None","None","None","None","None","maps/google_map_1.png","None","objects/2/2_36.jpg","None","outdoors","Window.jpg","new",0,86,86,86,NA,NA,NA,NA,NA,NA,"",NA,NA,NA,NA,NA,NA,NA,NA,NA,"",NA,NA,NA,"",NA,NA,NA,"",NA,270.3065422,268.882686999998,268.882686999998,268.882686999998,268.882686999998,268.882686999998,268.882686999998,268.882686999998,268.882686999998,268.882686999998,1,1.41578440000012,270.548126199996,NA,NA,NA,NA,"","",NA,NA,"",NA,194,"2022-12-23_11h05.26.540","PEmem_Phase-02_retrieval","2022.2.4","None",NA,1
"137","None","None","None","None","None","None","maps/google_map_1.png","None","objects/2/2_108.jpg","None","indoors","Tube_Paint.jpg","new",0,87,87,87,NA,NA,NA,NA,NA,NA,"",NA,NA,NA,NA,NA,NA,NA,NA,NA,"",NA,NA,NA,"",NA,NA,NA,"",NA,271.2981879,270.807888399999,270.807888399999,270.807888399999,270.807888399999,270.807888399999,270.807888399999,270.807888399999,270.807888399999,270.807888399999,1,0.481594600001699,271.539893699999,NA,NA,NA,NA,"","",NA,NA,"",NA,194,"2022-12-23_11h05.26.540","PEmem_Phase-02_retrieval","2022.2.4","None",NA,1
"138","4.15812335713053","106.588235294118","196.588235294118","16.5882352941177","medium","238.363759325954","maps/google_map_1.png","131.775524031837","objects/1/1_130.jpg","0.0","indoors","ToothBrush.jpg","old",0,88,88,88,0,0,0,0,NA,NA,"",NA,NA,NA,NA,NA,NA,NA,NA,NA,"",NA,NA,NA,"",NA,NA,NA,"",NA,272.198208999995,271.788579399996,271.788579399996,271.788579399996,271.788579399996,271.788579399996,271.788579399996,271.788579399996,271.788579399996,271.788579399996,1,0.396975900002872,272.550368299999,272.550368299999,272.550368299999,272.550368299999,203,"['return']","[1.6457572000072105]",NA,NA,"",NA,194,"2022-12-23_11h05.26.540","PEmem_Phase-02_retrieval","2022.2.4","None",NA,0
"140","4.75383099906629","196.588235294118","16.5882352941177","76.4201680672269","singletons","272.512605042017","maps/google_map_1.png","None","objects/1/1_137.jpg","0.0","indoors","Tape_Clear.jpg","old",0,89,89,89,0,0,0,0,NA,NA,"",NA,NA,NA,NA,NA,NA,NA,NA,NA,"",NA,NA,NA,"",NA,NA,NA,"",NA,275.1815651,274.464276899998,274.464276899998,274.464276899998,274.464276899998,274.464276899998,274.464276899998,274.464276899998,274.464276899998,274.464276899998,1,0.706831200004672,275.5335739,275.5335739,275.5335739,275.5335739,124.5,"['return']","[0.9793047000057413]",NA,NA,"",NA,194,"2022-12-23_11h05.26.540","PEmem_Phase-02_retrieval","2022.2.4","None",NA,0
"142","5.27685401312294","196.588235294118","286.588235294118","106.588235294118","medium","302.494816038895","maps/google_map_1.png","105.906580744777","objects/1/1_46.jpg","0.0","outdoors","Hat_Cowboy.jpg","old",0,90,90,90,0,0,0,0,NA,NA,"",NA,NA,NA,NA,NA,NA,NA,NA,NA,"",NA,NA,NA,"",NA,NA,NA,"",NA,279.381662599997,276.7728097,276.7728097,276.7728097,276.7728097,276.7728097,276.7728097,276.7728097,276.7728097,276.7728097,6,2.59396870000637,279.7343779,279.7343779,279.7343779,279.7343779,309.5,"['return']","[0.8227456000022357]",NA,NA,"",NA,194,"2022-12-23_11h05.26.540","PEmem_Phase-02_retrieval","2022.2.4","None",NA,1
"144","3.65207164922482","106.588235294118","196.588235294118","16.5882352941177","medium","209.354425751741","maps/google_map_1.png","102.766190457623","objects/1/1_57.jpg","0.0","outdoors","Hat_Hard.jpg","old",0,91,91,91,0,0,0,0,NA,NA,"",NA,NA,NA,NA,NA,NA,NA,NA,NA,"",NA,NA,NA,"",NA,NA,NA,"",NA,281.6816588,280.832918299995,280.832918299995,280.832918299995,280.832918299995,280.832918299995,280.832918299995,280.832918299995,280.832918299995,280.832918299995,6,0.837356500000169,282.033285499994,282.033285499994,282.033285499994,282.033285499994,198,"['return']","[0.8302722000080394]",NA,NA,"",NA,194,"2022-12-23_11h05.26.540","PEmem_Phase-02_retrieval","2022.2.4","None",NA,1
"146","6.0694939309057","196.588235294118","106.588235294118","323.798319327731","singletons","347.932773109244","maps/google_map_1.png","None","objects/1/1_34.jpg","0.0","indoors","Ruler_Wooden.jpg","old",0,92,92,92,0,0,0,0,NA,NA,"",NA,NA,NA,NA,NA,NA,NA,NA,NA,"",NA,NA,NA,"",NA,NA,NA,"",NA,284.689993199994,283.1321303,283.1321303,283.1321303,283.1321303,283.1321303,283.1321303,283.1321303,283.1321303,283.1321303,1,1.5435373000073,285.039617999995,285.039617999995,285.039617999995,285.039617999995,197,"['return']","[1.0097727000029408]",NA,NA,"",NA,194,"2022-12-23_11h05.26.540","PEmem_Phase-02_retrieval","2022.2.4","None",NA,0
"148","4.46141503514009","106.588235294118","196.588235294118","16.5882352941177","high","255.749906472999","maps/google_map_1.png","149.161671178881","objects/1/1_105.jpg","0.0","outdoors","Hippopotamus.jpg","old",0,93,93,93,0,0,0,0,NA,NA,"",NA,NA,NA,NA,NA,NA,NA,NA,NA,"",NA,NA,NA,"",NA,NA,NA,"",NA,287.540024099995,286.3157125,286.3157125,286.3157125,286.3157125,286.3157125,286.3157125,286.3157125,286.3157125,286.3157125,1,1.21552450000308,287.889748199996,287.889748199996,287.889748199996,287.889748199996,95.5,"['return']","[1.0411679000026197]",NA,NA,"",NA,194,"2022-12-23_11h05.26.540","PEmem_Phase-02_retrieval","2022.2.4","None",NA,0
"150","None","None","None","None","None","None","maps/google_map_1.png","None","objects/2/2_126.jpg","None","indoors","Playdoh.jpg","new",0,94,94,94,NA,NA,NA,NA,NA,NA,"",NA,NA,NA,NA,NA,NA,NA,NA,NA,"",NA,NA,NA,"",NA,NA,NA,"",NA,289.931650399994,289.1914598,289.1914598,289.1914598,289.1914598,289.1914598,289.1914598,289.1914598,289.1914598,289.1914598,1,0.727769299999636,290.173410899995,NA,NA,NA,NA,"","",NA,NA,"",NA,194,"2022-12-23_11h05.26.540","PEmem_Phase-02_retrieval","2022.2.4","None",NA,1
"151","5.25830009911195","106.588235294118","196.588235294118","16.5882352941177","high","301.431215872659","maps/google_map_1.png","165.157019421458","objects/1/1_103.jpg","0.0","outdoors","Stone_Spa.jpg","old",0,95,95,95,0,0,0,0,NA,NA,"",NA,NA,NA,NA,NA,NA,NA,NA,NA,"",NA,NA,NA,"",NA,NA,NA,"",NA,291.5148338,290.432699899997,290.432699899997,290.432699899997,290.432699899997,290.432699899997,290.432699899997,290.432699899997,290.432699899997,290.432699899997,6,1.07265600000392,291.8659481,291.8659481,291.8659481,291.8659481,327.5,"['return']","[0.7835667000035755]",NA,NA,"",NA,194,"2022-12-23_11h05.26.540","PEmem_Phase-02_retrieval","2022.2.4","None",NA,1
"153","None","None","None","None","None","None","maps/google_map_1.png","None","objects/2/2_137.jpg","None","outdoors","Wheelbarrow_Green.jpg","new",0,96,96,96,NA,NA,NA,NA,NA,NA,"",NA,NA,NA,NA,NA,NA,NA,NA,NA,"",NA,NA,NA,"",NA,NA,NA,"",NA,293.648219199997,292.913860099994,292.913860099994,292.913860099994,292.913860099994,292.913860099994,292.913860099994,292.913860099994,292.913860099994,292.913860099994,1,0.72279150000395,293.890315299999,NA,NA,NA,NA,"","",NA,NA,"",NA,194,"2022-12-23_11h05.26.540","PEmem_Phase-02_retrieval","2022.2.4","None",NA,1
"154","None","None","None","None","None","None","maps/google_map_1.png","None","objects/2/2_72.jpg","None","indoors","Binder.jpg","new",0,97,97,97,NA,NA,NA,NA,NA,NA,"",NA,NA,NA,NA,NA,NA,NA,NA,NA,"",NA,NA,NA,"",NA,NA,NA,"",NA,294.748462599993,294.149851899994,294.149851899994,294.149851899994,294.149851899994,294.149851899994,294.149851899994,294.149851899994,294.149851899994,294.149851899994,1,0.589361799997278,294.990112199994,NA,NA,NA,NA,"","",NA,NA,"",NA,194,"2022-12-23_11h05.26.540","PEmem_Phase-02_retrieval","2022.2.4","None",NA,1
"155","None","None","None","None","None","None","maps/google_map_1.png","None","objects/2/2_64.jpg","None","outdoors","Shark_GreatWhite.jpg","new",0,98,98,98,NA,NA,NA,NA,NA,NA,"",NA,NA,NA,NA,NA,NA,NA,NA,NA,"",NA,NA,NA,"",NA,NA,NA,"",NA,295.956739899993,295.247572199994,295.247572199994,295.247572199994,295.247572199994,295.247572199994,295.247572199994,295.247572199994,295.247572199994,295.247572199994,1,0.694048800003657,296.198514099997,NA,NA,NA,NA,"","",NA,NA,"",NA,194,"2022-12-23_11h05.26.540","PEmem_Phase-02_retrieval","2022.2.4","None",NA,1
"156","None","None","None","None","None","None","maps/google_map_1.png","None","objects/2/2_20.jpg","None","outdoors","Squid_Pink.jpg","new",0,99,99,99,NA,NA,NA,NA,NA,NA,"",NA,NA,NA,NA,NA,NA,NA,NA,NA,"",NA,NA,NA,"",NA,NA,NA,"",NA,297.339964299994,296.450885599996,296.450885599996,296.450885599996,296.450885599996,296.450885599996,296.450885599996,296.450885599996,296.450885599996,296.450885599996,1,0.879619799998181,297.581870999995,NA,NA,NA,NA,"","",NA,NA,"",NA,194,"2022-12-23_11h05.26.540","PEmem_Phase-02_retrieval","2022.2.4","None",NA,1
"157","None","None","None","None","None","None","maps/google_map_1.png","None","objects/2/2_73.jpg","None","outdoors","WaterWell.jpg","new",0,100,100,100,NA,NA,NA,NA,NA,NA,"",NA,NA,NA,NA,NA,NA,NA,NA,NA,"",NA,NA,NA,"",NA,NA,NA,"",NA,304.2902072,297.841961099999,297.841961099999,297.841961099999,297.841961099999,297.841961099999,297.841961099999,297.841961099999,297.841961099999,297.841961099999,1,6.43630870000197,304.532019599996,NA,NA,NA,NA,"","",NA,NA,"",NA,194,"2022-12-23_11h05.26.540","PEmem_Phase-02_retrieval","2022.2.4","None",NA,1
"158","None","None","None","None","None","None","maps/google_map_1.png","None","objects/2/2_135.jpg","None","indoors","ComputerKeyboard_F1.jpg","new",0,101,101,101,NA,NA,NA,NA,NA,NA,"",NA,NA,NA,NA,NA,NA,NA,NA,NA,"",NA,NA,NA,"",NA,NA,NA,"",NA,305.348430899998,304.789906999998,304.789906999998,304.789906999998,304.789906999998,304.789906999998,304.789906999998,304.789906999998,304.789906999998,304.789906999998,1,0.549031000002287,305.5900846,NA,NA,NA,NA,"","",NA,NA,"",NA,194,"2022-12-23_11h05.26.540","PEmem_Phase-02_retrieval","2022.2.4","None",NA,1
"159","None","None","None","None","None","None","maps/google_map_1.png","None","objects/2/2_71.jpg","None","outdoors","PumiceStone.jpg","new",0,102,102,102,NA,NA,NA,NA,NA,NA,"",NA,NA,NA,NA,NA,NA,NA,NA,NA,"",NA,NA,NA,"",NA,NA,NA,"",NA,306.756897399995,305.852793999999,305.852793999999,305.852793999999,305.852793999999,305.852793999999,305.852793999999,305.852793999999,305.852793999999,305.852793999999,1,0.889495500006888,307.001082399998,NA,NA,NA,NA,"","",NA,NA,"",NA,194,"2022-12-23_11h05.26.540","PEmem_Phase-02_retrieval","2022.2.4","None",NA,1
"160","None","None","None","None","None","None","maps/google_map_1.png","None","objects/2/2_31.jpg","None","outdoors","Bark.jpg","new",0,103,103,103,NA,NA,NA,NA,NA,NA,"",NA,NA,NA,NA,NA,NA,NA,NA,NA,"",NA,NA,NA,"",NA,NA,NA,"",NA,307.798690299998,307.2602883,307.2602883,307.2602883,307.2602883,307.2602883,307.2602883,307.2602883,307.2602883,307.2602883,1,0.523863200003689,308.040422499995,NA,NA,NA,NA,"","",NA,NA,"",NA,194,"2022-12-23_11h05.26.540","PEmem_Phase-02_retrieval","2022.2.4","None",NA,1
"161","None","None","None","None","None","None","maps/google_map_1.png","None","objects/2/2_4.jpg","None","outdoors","Hoverboard.jpg","new",0,104,104,104,NA,NA,NA,NA,NA,NA,"",NA,NA,NA,NA,NA,NA,NA,NA,NA,"",NA,NA,NA,"",NA,NA,NA,"",NA,312.273769299994,308.301016599995,308.301016599995,308.301016599995,308.301016599995,308.301016599995,308.301016599995,308.301016599995,308.301016599995,308.301016599995,1,3.9605945000003,312.515343999999,NA,NA,NA,NA,"","",NA,NA,"",NA,194,"2022-12-23_11h05.26.540","PEmem_Phase-02_retrieval","2022.2.4","None",NA,1
"162","None","None","None","None","None","None","maps/google_map_1.png","None","objects/2/2_80.jpg","None","indoors","Scissors.jpg","new",0,105,105,105,NA,NA,NA,NA,NA,NA,"",NA,NA,NA,NA,NA,NA,NA,NA,NA,"",NA,NA,NA,"",NA,NA,NA,"",NA,313.973782299996,312.7666818,312.7666818,312.7666818,312.7666818,312.7666818,312.7666818,312.7666818,312.7666818,312.7666818,1,1.19802550000168,314.215595199996,NA,NA,NA,NA,"","",NA,NA,"",NA,194,"2022-12-23_11h05.26.540","PEmem_Phase-02_retrieval","2022.2.4","None",NA,1
"163","1.87541482102602","106.588235294118","196.588235294118","16.5882352941177","low","107.507855982383","maps/google_map_1.png","0.919620688265448","objects/1/1_17.jpg","0.0","outdoors","TigerWhite.jpg","old",0,106,106,106,0,0,0,0,NA,NA,"",NA,NA,NA,NA,NA,NA,NA,NA,NA,"",NA,NA,NA,"",NA,NA,NA,"",NA,315.617353499998,314.475878199999,314.475878199999,314.475878199999,314.475878199999,314.475878199999,314.475878199999,314.475878199999,314.475878199999,314.475878199999,5,1.12890890000563,315.975934399998,315.975934399998,315.975934399998,315.975934399998,334.5,"['return']","[0.870013800005836]",NA,NA,"",NA,194,"2022-12-23_11h05.26.540","PEmem_Phase-02_retrieval","2022.2.4","None",NA,1
"165","None","None","None","None","None","None","maps/google_map_1.png","None","objects/2/2_19.jpg","None","outdoors","Shovel_Garden.jpg","new",0,107,107,107,NA,NA,NA,NA,NA,NA,"",NA,NA,NA,NA,NA,NA,NA,NA,NA,"",NA,NA,NA,"",NA,NA,NA,"",NA,321.782024099994,317.109407899996,317.109407899996,317.109407899996,317.109407899996,317.109407899996,317.109407899996,317.109407899996,317.109407899996,317.109407899996,1,4.66412180000043,322.023693799994,NA,NA,NA,NA,"","",NA,NA,"",NA,194,"2022-12-23_11h05.26.540","PEmem_Phase-02_retrieval","2022.2.4","None",NA,1
"166","None","None","None","None","None","None","maps/google_map_1.png","None","objects/2/2_33.jpg","None","indoors","Cheesegrater_Box.jpg","new",0,108,108,108,NA,NA,NA,NA,NA,NA,"",NA,NA,NA,NA,NA,NA,NA,NA,NA,"",NA,NA,NA,"",NA,NA,NA,"",NA,322.890335599994,322.273483799996,322.273483799996,322.273483799996,322.273483799996,322.273483799996,322.273483799996,322.273483799996,322.273483799996,322.273483799996,1,0.605998300001374,323.1321322,NA,NA,NA,NA,"","",NA,NA,"",NA,194,"2022-12-23_11h05.26.540","PEmem_Phase-02_retrieval","2022.2.4","None",NA,1
"167","0.231101810834225","196.588235294118","286.588235294118","106.588235294118","high","13.2478745064205","maps/google_map_1.png","176.659639212303","objects/1/1_21.jpg","0.0","outdoors","Cow.jpg","old",0,109,109,109,0,0,0,0,NA,NA,"",NA,NA,NA,NA,NA,NA,NA,NA,NA,"",NA,NA,NA,"",NA,NA,NA,"",NA,324.515219999994,323.3902217,323.3902217,323.3902217,323.3902217,323.3902217,323.3902217,323.3902217,323.3902217,323.3902217,5,1.11426249999931,324.868256499998,324.868256499998,324.868256499998,324.868256499998,349,"['return']","[0.7671361000029719]",NA,NA,"",NA,194,"2022-12-23_11h05.26.540","PEmem_Phase-02_retrieval","2022.2.4","None",NA,1
"169","None","None","None","None","None","None","maps/google_map_1.png","None","objects/2/2_23.jpg","None","outdoors","TotemPole.jpg","new",0,110,110,110,NA,NA,NA,NA,NA,NA,"",NA,NA,NA,NA,NA,NA,NA,NA,NA,"",NA,NA,NA,"",NA,NA,NA,"",NA,327.765295199999,325.899674399996,325.899674399996,325.899674399996,325.899674399996,325.899674399996,325.899674399996,325.899674399996,325.899674399996,325.899674399996,1,1.85634410000785,328.006973099997,NA,NA,NA,NA,"","",NA,NA,"",NA,194,"2022-12-23_11h05.26.540","PEmem_Phase-02_retrieval","2022.2.4","None",NA,1
"170","0.806842203548086","196.588235294118","16.5882352941177","230.27731092437","singletons","46.2521008403361","maps/google_map_1.png","None","objects/1/1_20.jpg","0.0","indoors","Clock_Wall.jpg","old",0,111,111,111,0,0,0,0,NA,NA,"",NA,NA,NA,NA,NA,NA,NA,NA,NA,"",NA,NA,NA,"",NA,NA,NA,"",NA,329.415499299997,328.266584499994,328.266584499994,328.266584499994,328.266584499994,328.266584499994,328.266584499994,328.266584499994,328.266584499994,328.266584499994,6,1.14049080000405,329.765121499993,329.765121499993,329.765121499993,329.765121499993,36,"['return']","[1.284541500004707]",NA,NA,"",NA,194,"2022-12-23_11h05.26.540","PEmem_Phase-02_retrieval","2022.2.4","None",NA,1
"172","None","None","None","None","None","None","maps/google_map_1.png","None","objects/2/2_143.jpg","None","outdoors","Clam.jpg","new",0,112,112,112,NA,NA,NA,NA,NA,NA,"",NA,NA,NA,NA,NA,NA,NA,NA,NA,"",NA,NA,NA,"",NA,NA,NA,"",NA,332.640651999995,331.314397099995,331.314397099995,331.314397099995,331.314397099995,331.314397099995,331.314397099995,331.314397099995,331.314397099995,331.314397099995,5,1.31958750000194,332.882112599997,NA,NA,NA,NA,"","",NA,NA,"",NA,194,"2022-12-23_11h05.26.540","PEmem_Phase-02_retrieval","2022.2.4","None",NA,0
"173","None","None","None","None","None","None","maps/google_map_1.png","None","objects/2/2_57.jpg","None","indoors","RollingPin.jpg","new",0,113,113,113,NA,NA,NA,NA,NA,NA,"",NA,NA,NA,NA,NA,NA,NA,NA,NA,"",NA,NA,NA,"",NA,NA,NA,"",NA,334.7237484,333.140275899998,333.140275899998,333.140275899998,333.140275899998,333.140275899998,333.140275899998,333.140275899998,333.140275899998,333.140275899998,1,1.57068130000698,334.965481799998,NA,NA,NA,NA,"","",NA,NA,"",NA,194,"2022-12-23_11h05.26.540","PEmem_Phase-02_retrieval","2022.2.4","None",NA,1
"174","2.65029408470014","106.588235294118","196.588235294118","16.5882352941177","medium","151.927686384085","maps/google_map_1.png","45.339451089967","objects/1/1_118.jpg","0.0","outdoors","DogHouse.jpg","old",0,114,114,114,0,0,0,0,NA,NA,"",NA,NA,NA,NA,NA,NA,NA,NA,NA,"",NA,NA,NA,"",NA,NA,NA,"",NA,340.223796099999,335.215688599994,335.215688599994,335.215688599994,335.215688599994,335.215688599994,335.215688599994,335.215688599994,335.215688599994,335.215688599994,5,4.99646980000398,340.580647399998,340.580647399998,340.580647399998,340.580647399998,73.5,"['return']","[0.8406470999980229]",NA,NA,"",NA,194,"2022-12-23_11h05.26.540","PEmem_Phase-02_retrieval","2022.2.4","None",NA,1
"176","None","None","None","None","None","None","maps/google_map_1.png","None","objects/2/2_90.jpg","None","indoors","Switch_LightWhite.jpg","new",0,115,115,115,NA,NA,NA,NA,NA,NA,"",NA,NA,NA,NA,NA,NA,NA,NA,NA,"",NA,NA,NA,"",NA,NA,NA,"",NA,342.598836499994,341.6896528,341.6896528,341.6896528,341.6896528,341.6896528,341.6896528,341.6896528,341.6896528,341.6896528,1,0.899618600000395,342.840605399993,NA,NA,NA,NA,"","",NA,NA,"",NA,194,"2022-12-23_11h05.26.540","PEmem_Phase-02_retrieval","2022.2.4","None",NA,1
"177","None","None","None","None","None","None","maps/google_map_1.png","None","objects/2/2_53.jpg","None","outdoors","TreeStump.jpg","new",0,116,116,116,NA,NA,NA,NA,NA,NA,"",NA,NA,NA,NA,NA,NA,NA,NA,NA,"",NA,NA,NA,"",NA,NA,NA,"",NA,343.6489353,343.102303799998,343.102303799998,343.102303799998,343.102303799998,343.102303799998,343.102303799998,343.102303799998,343.102303799998,343.102303799998,1,0.538165999998455,343.890605399996,NA,NA,NA,NA,"","",NA,NA,"",NA,194,"2022-12-23_11h05.26.540","PEmem_Phase-02_retrieval","2022.2.4","None",NA,1
"178","3.60031544478509","196.588235294118","286.588235294118","106.588235294118","low","206.387509573668","maps/google_map_1.png","9.79927427954997","objects/1/1_71.jpg","0.0","outdoors","PoliceTape.jpg","old",0,117,117,117,0,0,0,0,NA,NA,"",NA,NA,NA,NA,NA,NA,NA,NA,NA,"",NA,NA,NA,"",NA,NA,NA,"",NA,345.115566599998,344.141283699995,344.141283699995,344.141283699995,344.141283699995,344.141283699995,344.141283699995,344.141283699995,344.141283699995,344.141283699995,5,0.965124700007436,345.466131699999,345.466131699999,345.466131699999,345.466131699999,73.5,"['return']","[0.6838378000029479]",NA,NA,"",NA,194,"2022-12-23_11h05.26.540","PEmem_Phase-02_retrieval","2022.2.4","None",NA,1
"180","None","None","None","None","None","None","maps/google_map_1.png","None","objects/2/2_114.jpg","None","indoors","Blackboard.jpg","new",0,118,118,118,NA,NA,NA,NA,NA,NA,"",NA,NA,NA,NA,NA,NA,NA,NA,NA,"",NA,NA,NA,"",NA,NA,NA,"",NA,347.207758099998,346.4188402,346.4188402,346.4188402,346.4188402,346.4188402,346.4188402,346.4188402,346.4188402,346.4188402,1,0.775274000006902,347.448781599996,NA,NA,NA,NA,"","",NA,NA,"",NA,194,"2022-12-23_11h05.26.540","PEmem_Phase-02_retrieval","2022.2.4","None",NA,1
"181","None","None","None","None","None","None","maps/google_map_1.png","None","objects/2/2_34.jpg","None","outdoors","Arch.jpg","new",0,119,119,119,NA,NA,NA,NA,NA,NA,"",NA,NA,NA,NA,NA,NA,NA,NA,NA,"",NA,NA,NA,"",NA,NA,NA,"",NA,348.257303899998,347.708168099998,347.708168099998,347.708168099998,347.708168099998,347.708168099998,347.708168099998,347.708168099998,347.708168099998,347.708168099998,1,0.535834300004353,348.498965999999,NA,NA,NA,NA,"","",NA,NA,"",NA,194,"2022-12-23_11h05.26.540","PEmem_Phase-02_retrieval","2022.2.4","None",NA,1
"182","1.68209003867839","106.588235294118","196.588235294118","16.5882352941177","low","96.4255436185065","maps/google_map_1.png","10.1626916756112","objects/1/1_44.jpg","0.0","indoors","ProcessorFood_Old.jpg","old",0,120,120,120,0,0,0,0,NA,NA,"",NA,NA,NA,NA,NA,NA,NA,NA,NA,"",NA,NA,NA,"",NA,NA,NA,"",NA,350.140673499998,348.7576644,348.7576644,348.7576644,348.7576644,348.7576644,348.7576644,348.7576644,348.7576644,348.7576644,5,1.36697780000395,350.489565899996,350.489565899996,350.489565899996,350.489565899996,141,"['return']","[0.9111188000024413]",NA,NA,"",NA,194,"2022-12-23_11h05.26.540","PEmem_Phase-02_retrieval","2022.2.4","None",NA,1
"184","5.37607554785427","106.588235294118","196.588235294118","16.5882352941177","high","308.182674717761","maps/google_map_1.png","158.405560576357","objects/1/1_26.jpg","0.0","indoors","Razor.jpg","old",0,121,121,121,0,0,0,0,NA,NA,"",NA,NA,NA,NA,NA,NA,NA,NA,NA,"",NA,NA,NA,"",NA,NA,NA,"",NA,352.682142799997,351.664625499994,351.664625499994,351.664625499994,351.664625499994,351.664625499994,351.664625499994,351.664625499994,351.664625499994,351.664625499994,6,1.00771669999813,353.0328801,353.0328801,353.0328801,353.0328801,327.5,"['return']","[1.7041817999997875]",NA,NA,"",NA,194,"2022-12-23_11h05.26.540","PEmem_Phase-02_retrieval","2022.2.4","None",NA,1
"186","None","None","None","None","None","None","maps/google_map_1.png","None","objects/2/2_44.jpg","None","indoors","Popcorn.jpg","new",0,122,122,122,NA,NA,NA,NA,NA,NA,"",NA,NA,NA,NA,NA,NA,NA,NA,NA,"",NA,NA,NA,"",NA,NA,NA,"",NA,355.815363599999,355.008619199994,355.008619199994,355.008619199994,355.008619199994,355.008619199994,355.008619199994,355.008619199994,355.008619199994,355.008619199994,1,0.792690700000094,356.057472199995,NA,NA,NA,NA,"","",NA,NA,"",NA,194,"2022-12-23_11h05.26.540","PEmem_Phase-02_retrieval","2022.2.4","None",NA,1
"187","None","None","None","None","None","None","maps/google_map_1.png","None","objects/2/2_111.jpg","None","indoors","Can_Olives.jpg","new",0,123,123,123,NA,NA,NA,NA,NA,NA,"",NA,NA,NA,NA,NA,NA,NA,NA,NA,"",NA,NA,NA,"",NA,NA,NA,"",NA,359.0441508,356.316860799998,356.316860799998,356.316860799998,356.316860799998,356.316860799998,356.316860799998,356.316860799998,356.316860799998,356.316860799998,1,2.72117130000697,359.290884999995,NA,NA,NA,NA,"","",NA,NA,"",NA,194,"2022-12-23_11h05.26.540","PEmem_Phase-02_retrieval","2022.2.4","None",NA,1
"188","3.04272904965081","106.588235294118","196.588235294118","16.5882352941177","medium","174.423958260237","maps/google_map_1.png","67.8357229661196","objects/1/1_127.jpg","0.0","outdoors","FireHydrant.jpg","old",0,124,124,124,0,0,0,0,NA,NA,"",NA,NA,NA,NA,NA,NA,NA,NA,NA,"",NA,NA,NA,"",NA,NA,NA,"",NA,360.690773099996,359.550198499994,359.550198499994,359.550198499994,359.550198499994,359.550198499994,359.550198499994,359.550198499994,359.550198499994,359.550198499994,6,1.13335720000032,361.051661799997,361.051661799997,361.051661799997,361.051661799997,188.5,"['return']","[1.3466683000006014]",NA,NA,"",NA,194,"2022-12-23_11h05.26.540","PEmem_Phase-02_retrieval","2022.2.4","None",NA,1
"190","None","None","None","None","None","None","maps/google_map_1.png","None","objects/2/2_117.jpg","None","outdoors","PlayerFootball.jpg","new",0,125,125,125,NA,NA,NA,NA,NA,NA,"",NA,NA,NA,NA,NA,NA,NA,NA,NA,"",NA,NA,NA,"",NA,NA,NA,"",NA,363.540816599998,362.6575858,362.6575858,362.6575858,362.6575858,362.6575858,362.6575858,362.6575858,362.6575858,362.6575858,1,0.870861300005345,363.782152299995,NA,NA,NA,NA,"","",NA,NA,"",NA,194,"2022-12-23_11h05.26.540","PEmem_Phase-02_retrieval","2022.2.4","None",NA,1
"191","None","None","None","None","None","None","maps/google_map_1.png","None","objects/2/2_133.jpg","None","indoors","FortuneCookie.jpg","new",0,126,126,126,NA,NA,NA,NA,NA,NA,"",NA,NA,NA,NA,NA,NA,NA,NA,NA,"",NA,NA,NA,"",NA,NA,NA,"",NA,364.657461199997,364.041709499994,364.041709499994,364.041709499994,364.041709499994,364.041709499994,364.041709499994,364.041709499994,364.041709499994,364.041709499994,1,0.607436400001461,364.899105699995,NA,NA,NA,NA,"","",NA,NA,"",NA,194,"2022-12-23_11h05.26.540","PEmem_Phase-02_retrieval","2022.2.4","None",NA,1
"192","1.9922534713804","106.588235294118","196.588235294118","16.5882352941177","low","114.205613009068","maps/google_map_1.png","7.61737771494995","objects/1/1_52.jpg","0.0","indoors","Star.jpg","old",0,127,127,127,0,0,0,0,NA,NA,"",NA,NA,NA,NA,NA,NA,NA,NA,NA,"",NA,NA,NA,"",NA,NA,NA,"",NA,366.324015399994,365.157906199995,365.157906199995,365.157906199995,365.157906199995,365.157906199995,365.157906199995,365.157906199995,365.157906199995,365.157906199995,6,1.15284790000442,366.673754399999,366.673754399999,366.673754399999,366.673754399999,160.5,"['return']","[0.6934724000020651]",NA,NA,"",NA,194,"2022-12-23_11h05.26.540","PEmem_Phase-02_retrieval","2022.2.4","None",NA,1
"194","None","None","None","None","None","None","maps/google_map_1.png","None","objects/2/2_78.jpg","None","indoors","Hotdog_WithBun.jpg","new",0,128,128,128,NA,NA,NA,NA,NA,NA,"",NA,NA,NA,NA,NA,NA,NA,NA,NA,"",NA,NA,NA,"",NA,NA,NA,"",NA,368.4739558,367.634404799996,367.634404799996,367.634404799996,367.634404799996,367.634404799996,367.634404799996,367.634404799996,367.634404799996,367.634404799996,1,0.82989390000148,368.715885599995,NA,NA,NA,NA,"","",NA,NA,"",NA,194,"2022-12-23_11h05.26.540","PEmem_Phase-02_retrieval","2022.2.4","None",NA,1
"195","None","None","None","None","None","None","maps/google_map_1.png","None","objects/2/2_99.jpg","None","outdoors","Giraffe.jpg","new",0,129,129,129,NA,NA,NA,NA,NA,NA,"",NA,NA,NA,NA,NA,NA,NA,NA,NA,"",NA,NA,NA,"",NA,NA,NA,"",NA,370.2241727,368.974599399997,368.974599399997,368.974599399997,368.974599399997,368.974599399997,368.974599399997,368.974599399997,368.974599399997,368.974599399997,5,1.23350540000683,370.465869899999,NA,NA,NA,NA,"","",NA,NA,"",NA,194,"2022-12-23_11h05.26.540","PEmem_Phase-02_retrieval","2022.2.4","None",NA,0
"196","None","None","None","None","None","None","maps/google_map_1.png","None","objects/2/2_69.jpg","None","outdoors","Toy_Slide.jpg","new",0,130,130,130,NA,NA,NA,NA,NA,NA,"",NA,NA,NA,NA,NA,NA,NA,NA,NA,"",NA,NA,NA,"",NA,NA,NA,"",NA,384.682746399994,370.717627799997,370.717627799997,370.717627799997,370.717627799997,370.717627799997,370.717627799997,370.717627799997,370.717627799997,370.717627799997,1,13.9533644999974,384.924158999995,NA,NA,NA,NA,"","",NA,NA,"",NA,194,"2022-12-23_11h05.26.540","PEmem_Phase-02_retrieval","2022.2.4","None",NA,1
"197","2.91190289449113","106.588235294118","286.588235294118","323.798319327731","singletons","166.924369747899","maps/google_map_1.png","None","objects/1/1_7.jpg","0.0","indoors","Briefcase_Open.jpg","old",0,131,131,131,0,0,0,0,NA,NA,"",NA,NA,NA,NA,NA,NA,NA,NA,NA,"",NA,NA,NA,"",NA,NA,NA,"",NA,385.874306399994,385.1848274,385.1848274,385.1848274,385.1848274,385.1848274,385.1848274,385.1848274,385.1848274,385.1848274,1,0.678591100004269,386.229663399994,386.229663399994,386.229663399994,386.229663399994,184,"['return']","[1.3681502000035834]",NA,NA,"",NA,194,"2022-12-23_11h05.26.540","PEmem_Phase-02_retrieval","2022.2.4","None",NA,0
"199","None","None","None","None","None","None","maps/google_map_1.png","None","objects/2/2_55.jpg","None","outdoors","Earth_Planet.jpg","new",0,132,132,132,NA,NA,NA,NA,NA,NA,"",NA,NA,NA,NA,NA,NA,NA,NA,NA,"",NA,NA,NA,"",NA,NA,NA,"",NA,388.874401099994,387.859950799997,387.859950799997,387.859950799997,387.859950799997,387.859950799997,387.859950799997,387.859950799997,387.859950799997,387.859950799997,1,0.999145600006159,389.115994699998,NA,NA,NA,NA,"","",NA,NA,"",NA,194,"2022-12-23_11h05.26.540","PEmem_Phase-02_retrieval","2022.2.4","None",NA,1
"200","3.70766920794333","196.588235294118","286.588235294118","106.588235294118","low","212.541546952165","maps/google_map_1.png","15.9533116580476","objects/1/1_15.jpg","0.0","indoors","Toy_Lion.jpg","old",0,133,133,133,0,0,0,0,NA,NA,"",NA,NA,NA,NA,NA,NA,NA,NA,NA,"",NA,NA,NA,"",NA,NA,NA,"",NA,390.382650799998,389.374220199999,389.374220199999,389.374220199999,389.374220199999,389.374220199999,389.374220199999,389.374220199999,389.374220199999,389.374220199999,1,0.996254700003192,390.737105799999,390.737105799999,390.737105799999,390.737105799999,126,"['return']","[0.8749334000021918]",NA,NA,"",NA,194,"2022-12-23_11h05.26.540","PEmem_Phase-02_retrieval","2022.2.4","None",NA,0
"202","4.80645751633987","196.588235294118","106.588235294118","254.411764705882","singletons","275.529411764706","maps/google_map_1.png","None","objects/1/1_131.jpg","0.0","indoors","MagazineRoll.jpg","old",0,134,134,134,0,0,0,0,NA,NA,"",NA,NA,NA,NA,NA,NA,NA,NA,NA,"",NA,NA,NA,"",NA,NA,NA,"",NA,393.1994461,391.884266899993,391.884266899993,391.884266899993,391.884266899993,391.884266899993,391.884266899993,391.884266899993,391.884266899993,391.884266899993,6,1.30141030000232,393.55171,393.55171,393.55171,393.55171,327.5,"['return']","[1.2535620000053314]",NA,NA,"",NA,194,"2022-12-23_11h05.26.540","PEmem_Phase-02_retrieval","2022.2.4","None",NA,1
"204","None","None","None","None","None","None","maps/google_map_1.png","None","objects/2/2_18.jpg","None","outdoors","Statue_Head.jpg","new",0,135,135,135,NA,NA,NA,NA,NA,NA,"",NA,NA,NA,NA,NA,NA,NA,NA,NA,"",NA,NA,NA,"",NA,NA,NA,"",NA,396.224451099995,395.073204,395.073204,395.073204,395.073204,395.073204,395.073204,395.073204,395.073204,395.073204,1,1.13661700000375,396.466106099993,NA,NA,NA,NA,"","",NA,NA,"",NA,194,"2022-12-23_11h05.26.540","PEmem_Phase-02_retrieval","2022.2.4","None",NA,1
"205","None","None","None","None","None","None","maps/google_map_1.png","None","objects/2/2_136.jpg","None","indoors","Spool_Thread.jpg","new",0,136,136,136,NA,NA,NA,NA,NA,NA,"",NA,NA,NA,NA,NA,NA,NA,NA,NA,"",NA,NA,NA,"",NA,NA,NA,"",NA,399.457830599997,396.725805899994,396.725805899994,396.725805899994,396.725805899994,396.725805899994,396.725805899994,396.725805899994,396.725805899994,396.725805899994,1,2.72173590000602,399.699442899997,NA,NA,NA,NA,"","",NA,NA,"",NA,194,"2022-12-23_11h05.26.540","PEmem_Phase-02_retrieval","2022.2.4","None",NA,1
"206","2.30940094849127","106.588235294118","196.588235294118","16.5882352941177","low","132.386041633258","maps/google_map_1.png","25.79780633914","objects/1/1_55.jpg","0.0","outdoors","Chipmunk.jpg","old",0,137,137,137,0,0,0,0,NA,NA,"",NA,NA,NA,NA,NA,NA,NA,NA,NA,"",NA,NA,NA,"",NA,NA,NA,"",NA,400.9411224,399.9520405,399.9520405,399.9520405,399.9520405,399.9520405,399.9520405,399.9520405,399.9520405,399.9520405,5,0.97497629999998,401.298569699997,401.298569699997,401.298569699997,401.298569699997,83.5,"['return']","[0.6670311999987462]",NA,NA,"",NA,194,"2022-12-23_11h05.26.540","PEmem_Phase-02_retrieval","2022.2.4","None",NA,1
"208","6.17474696545285","106.588235294118","286.588235294118","344.915966386555","singletons","353.966386554622","maps/google_map_1.png","None","objects/1/1_23.jpg","0.0","indoors","Stethoscope.jpg","old",0,138,138,138,0,0,0,0,NA,NA,"",NA,NA,NA,NA,NA,NA,NA,NA,NA,"",NA,NA,NA,"",NA,NA,NA,"",NA,403.324495199995,402.232625099998,402.232625099998,402.232625099998,402.232625099998,402.232625099998,402.232625099998,402.232625099998,402.232625099998,402.232625099998,6,1.08218950000446,403.6807262,403.6807262,403.6807262,403.6807262,1,"['return']","[1.5156966000067769]",NA,NA,"",NA,194,"2022-12-23_11h05.26.540","PEmem_Phase-02_retrieval","2022.2.4","None",NA,1
"210","None","None","None","None","None","None","maps/google_map_1.png","None","objects/2/2_131.jpg","None","outdoors","Bucket_WoodenDark.jpg","new",0,139,139,139,NA,NA,NA,NA,NA,NA,"",NA,NA,NA,NA,NA,NA,NA,NA,NA,"",NA,NA,NA,"",NA,NA,NA,"",NA,406.291049,405.465856999996,405.465856999996,405.465856999996,405.465856999996,405.465856999996,405.465856999996,405.465856999996,405.465856999996,405.465856999996,1,0.813490799999272,406.5328238,NA,NA,NA,NA,"","",NA,NA,"",NA,194,"2022-12-23_11h05.26.540","PEmem_Phase-02_retrieval","2022.2.4","None",NA,1
"211","2.70139682539683","196.588235294118","106.588235294118","221.226890756303","singletons","154.857142857143","maps/google_map_1.png","None","objects/1/1_18.jpg","0.0","indoors","ChessPiece_Knight.jpg","old",0,140,140,140,0,0,0,0,NA,NA,"",NA,NA,NA,NA,NA,NA,NA,NA,NA,"",NA,NA,NA,"",NA,NA,NA,"",NA,408.041307,406.795582999999,406.795582999999,406.795582999999,406.795582999999,406.795582999999,406.795582999999,406.795582999999,406.795582999999,406.795582999999,5,1.23428700000659,408.395808499998,408.395808499998,408.395808499998,408.395808499998,138.5,"['return']","[1.4205562000061036]",NA,NA,"",NA,194,"2022-12-23_11h05.26.540","PEmem_Phase-02_retrieval","2022.2.4","None",NA,1
"213","0.997349491908535","196.588235294118","286.588235294118","106.588235294118","high","57.1729008100434","maps/google_map_1.png","139.415334484074","objects/1/1_124.jpg","0.0","indoors","GranolaBar.jpg","old",0,141,141,141,0,0,0,0,NA,NA,"",NA,NA,NA,NA,NA,NA,NA,NA,NA,"",NA,NA,NA,"",NA,NA,NA,"",NA,411.707690699994,410.083255799997,410.083255799997,410.083255799997,410.083255799997,410.083255799997,410.083255799997,410.083255799997,410.083255799997,410.083255799997,6,1.60962060000747,412.0608555,412.0608555,412.0608555,412.0608555,14,"['return']","[0.8098070999985794]",NA,NA,"",NA,194,"2022-12-23_11h05.26.540","PEmem_Phase-02_retrieval","2022.2.4","None",NA,1
"215","3.39301522290087","106.588235294118","196.588235294118","16.5882352941177","medium","194.504057363744","maps/google_map_1.png","87.9158220696263","objects/1/1_106.jpg","0.0","indoors","Cheque.jpg","old",0,142,142,142,0,0,0,0,NA,NA,"",NA,NA,NA,NA,NA,NA,NA,NA,NA,"",NA,NA,NA,"",NA,NA,NA,"",NA,414.324647899994,413.141089499994,413.141089499994,413.141089499994,413.141089499994,413.141089499994,413.141089499994,413.141089499994,413.141089499994,413.141089499994,6,1.16744430000108,414.675987799994,414.675987799994,414.675987799994,414.675987799994,71,"['return']","[1.2536825999995926]",NA,NA,"",NA,194,"2022-12-23_11h05.26.540","PEmem_Phase-02_retrieval","2022.2.4","None",NA,1
"217","6.0694939309057","106.588235294118","16.5882352941177","287.596638655462","singletons","347.932773109244","maps/google_map_1.png","None","objects/1/1_70.jpg","0.0","outdoors","Colosseum.jpg","old",0,143,143,143,0,0,0,0,NA,NA,"",NA,NA,NA,NA,NA,NA,NA,NA,NA,"",NA,NA,NA,"",NA,NA,NA,"",NA,417.299414199995,416.199736099996,416.199736099996,416.199736099996,416.199736099996,416.199736099996,416.199736099996,416.199736099996,416.199736099996,416.199736099996,6,1.08350900000369,417.650356599996,417.650356599996,417.650356599996,417.650356599996,320.5,"['return']","[1.5025021999972523]",NA,NA,"",NA,194,"2022-12-23_11h05.26.540","PEmem_Phase-02_retrieval","2022.2.4","None",NA,1
"219","2.66220514726578","106.588235294118","196.588235294118","16.5882352941177","medium","152.610486148994","maps/google_map_1.png","46.0222508548758","objects/1/1_11.jpg","0.0","indoors","Licorice.jpg","old",0,144,144,144,0,0,0,0,NA,NA,"",NA,NA,NA,NA,NA,NA,NA,NA,NA,"",NA,NA,NA,"",NA,NA,NA,"",NA,420.699593499994,419.417531799998,419.417531799998,419.417531799998,419.417531799998,419.417531799998,419.417531799998,419.417531799998,419.417531799998,419.417531799998,6,1.27238090000174,421.050348599994,421.050348599994,421.050348599994,421.050348599994,151.5,"['return']","[0.8209750000023632]",NA,NA,"",NA,194,"2022-12-23_11h05.26.540","PEmem_Phase-02_retrieval","2022.2.4","None",NA,1
"221","3.42365287774157","196.588235294118","286.588235294118","106.588235294118","low","196.26035604888","maps/google_map_1.png","0.327879245237778","objects/1/1_62.jpg","0.0","indoors","RecorderCassette.jpg","old",0,145,145,145,0,0,0,0,NA,NA,"",NA,NA,NA,NA,NA,NA,NA,NA,NA,"",NA,NA,NA,"",NA,NA,NA,"",NA,423.291361999996,422.143488099995,422.143488099995,422.143488099995,422.143488099995,422.143488099995,422.143488099995,422.143488099995,422.143488099995,422.143488099995,6,1.13725360000535,423.641119299995,423.641119299995,423.641119299995,423.641119299995,186,"['return']","[0.8914121000052546]",NA,NA,"",NA,194,"2022-12-23_11h05.26.540","PEmem_Phase-02_retrieval","2022.2.4","None",NA,1
"223","None","None","None","None","None","None","maps/google_map_1.png","None","objects/2/2_139.jpg","None","indoors","Button.jpg","new",0,146,146,146,NA,NA,NA,NA,NA,NA,"",NA,NA,NA,NA,NA,NA,NA,NA,NA,"",NA,NA,NA,"",NA,NA,NA,"",NA,425.624811599999,424.799993299996,424.799993299996,424.799993299996,424.799993299996,424.799993299996,424.799993299996,424.799993299996,424.799993299996,424.799993299996,1,0.8104994000023,425.8663791,NA,NA,NA,NA,"","",NA,NA,"",NA,194,"2022-12-23_11h05.26.540","PEmem_Phase-02_retrieval","2022.2.4","None",NA,1
"224","4.74843578002401","106.588235294118","196.588235294118","16.5882352941177","high","272.203324969529","maps/google_map_1.png","165.615089675412","objects/1/1_117.jpg","0.0","outdoors","Kangaroo.jpg","old",0,147,147,147,0,0,0,0,NA,NA,"",NA,NA,NA,NA,NA,NA,NA,NA,NA,"",NA,NA,NA,"",NA,NA,NA,"",NA,427.032977799994,426.125014699996,426.125014699996,426.125014699996,426.125014699996,426.125014699996,426.125014699996,426.125014699996,426.125014699996,426.125014699996,6,0.899928700004239,427.387580299997,427.387580299997,427.387580299997,427.387580299997,142,"['return']","[0.9948453000033624]",NA,NA,"",NA,194,"2022-12-23_11h05.26.540","PEmem_Phase-02_retrieval","2022.2.4","None",NA,1
"226","None","None","None","None","None","None","maps/google_map_1.png","None","objects/2/2_54.jpg","None","outdoors","BasketballHoop.jpg","new",0,148,148,148,NA,NA,NA,NA,NA,NA,"",NA,NA,NA,NA,NA,NA,NA,NA,NA,"",NA,NA,NA,"",NA,NA,NA,"",NA,429.316439799994,428.641391899997,428.641391899997,428.641391899997,428.641391899997,428.641391899997,428.641391899997,428.641391899997,428.641391899997,428.641391899997,1,0.659367800006294,429.558074499997,NA,NA,NA,NA,"","",NA,NA,"",NA,194,"2022-12-23_11h05.26.540","PEmem_Phase-02_retrieval","2022.2.4","None",NA,1
"227","2.16537965941162","106.588235294118","196.588235294118","16.5882352941177","low","124.130044170093","maps/google_map_1.png","17.541808875975","objects/1/1_98.jpg","0.0","indoors","Pasta_Spaghetti.jpg","old",0,149,149,149,0,0,0,0,NA,NA,"",NA,NA,NA,NA,NA,NA,NA,NA,NA,"",NA,NA,NA,"",NA,NA,NA,"",NA,430.841462599994,429.8146194,429.8146194,429.8146194,429.8146194,429.8146194,429.8146194,429.8146194,429.8146194,429.8146194,6,1.01316920000681,431.192909499994,431.192909499994,431.192909499994,431.192909499994,123.5,"['return']","[1.5076958000063314]",NA,NA,"",NA,194,"2022-12-23_11h05.26.540","PEmem_Phase-02_retrieval","2022.2.4","None",NA,1
"229","2.33301120448179","196.588235294118","106.588235294118","25.1344537815126","singletons","133.739495798319","maps/google_map_1.png","None","objects/1/1_139.jpg","0.0","outdoors","Boot_Rain.jpg","old",0,150,150,150,0,0,0,0,NA,NA,"",NA,NA,NA,NA,NA,NA,NA,NA,NA,"",NA,NA,NA,"",NA,NA,NA,"",NA,434.0495323,432.958709399994,432.958709399994,432.958709399994,432.958709399994,432.958709399994,432.958709399994,432.958709399994,432.958709399994,432.958709399994,6,1.07978560000629,434.404449299996,434.404449299996,434.404449299996,434.404449299996,74.5,"['return']","[0.9829328999985592]",NA,NA,"",NA,194,"2022-12-23_11h05.26.540","PEmem_Phase-02_retrieval","2022.2.4","None",NA,1
"231","None","None","None","None","None","None","maps/google_map_1.png","None","objects/2/2_49.jpg","None","indoors","RibbonSpool.jpg","new",0,151,151,151,NA,NA,NA,NA,NA,NA,"",NA,NA,NA,NA,NA,NA,NA,NA,NA,"",NA,NA,NA,"",NA,NA,NA,"",NA,436.341526199998,435.657973499998,435.657973499998,435.657973499998,435.657973499998,435.657973499998,435.657973499998,435.657973499998,435.657973499998,435.657973499998,1,0.673780900004203,436.583226799994,NA,NA,NA,NA,"","",NA,NA,"",NA,194,"2022-12-23_11h05.26.540","PEmem_Phase-02_retrieval","2022.2.4","None",NA,1
"232","3.4346121855891","196.588235294118","286.588235294118","106.588235294118","low","196.888596626127","maps/google_map_1.png","0.300361332008927","objects/1/1_94.jpg","0.0","outdoors","Gorilla.jpg","old",0,152,152,152,0,0,0,0,NA,NA,"",NA,NA,NA,NA,NA,NA,NA,NA,NA,"",NA,NA,NA,"",NA,NA,NA,"",NA,437.866573899999,436.838488999994,436.838488999994,436.838488999994,436.838488999994,436.838488999994,436.838488999994,436.838488999994,436.838488999994,436.838488999994,6,1.01612200000818,438.216079799997,438.216079799997,438.216079799997,438.216079799997,99,"['return']","[0.9915500000061002]",NA,NA,"",NA,194,"2022-12-23_11h05.26.540","PEmem_Phase-02_retrieval","2022.2.4","None",NA,1
"234","3.64015814276201","196.588235294118","286.588235294118","106.588235294118","low","208.671485890816","maps/google_map_1.png","12.083250596698","objects/1/1_77.jpg","0.0","indoors","Battery_AA.jpg","old",0,153,153,153,0,0,0,0,NA,NA,"",NA,NA,NA,NA,NA,NA,NA,NA,NA,"",NA,NA,NA,"",NA,NA,NA,"",NA,440.600578999998,439.474873299994,439.474873299994,439.474873299994,439.474873299994,439.474873299994,439.474873299994,439.474873299994,439.474873299994,439.474873299994,6,1.11018850000255,440.951011799996,440.951011799996,440.951011799996,440.951011799996,188,"['return']","[0.8989820999995572]",NA,NA,"",NA,194,"2022-12-23_11h05.26.540","PEmem_Phase-02_retrieval","2022.2.4","None",NA,1
"236","4.3118235712171","196.588235294118","286.588235294118","106.588235294118","medium","247.17459962391","maps/google_map_1.png","50.5863643297926","objects/1/1_143.jpg","0.0","indoors","Stamp.jpg","old",0,154,154,154,0,0,0,0,NA,NA,"",NA,NA,NA,NA,NA,NA,NA,NA,NA,"",NA,NA,NA,"",NA,NA,NA,"",NA,443.349709099995,442.117333899994,442.117333899994,442.117333899994,442.117333899994,442.117333899994,442.117333899994,442.117333899994,442.117333899994,442.117333899994,6,1.22299290000228,443.7014127,443.7014127,443.7014127,443.7014127,174,"['return']","[0.5594047000049613]",NA,NA,"",NA,194,"2022-12-23_11h05.26.540","PEmem_Phase-02_retrieval","2022.2.4","None",NA,1
"238","5.09266615689718","196.588235294118","286.588235294118","106.588235294118","medium","291.936276510029","maps/google_map_1.png","95.3480412159115","objects/1/1_76.jpg","0.0","outdoors","Dragonfly.jpg","old",0,155,155,155,0,0,0,0,NA,NA,"",NA,NA,NA,NA,NA,NA,NA,NA,NA,"",NA,NA,NA,"",NA,NA,NA,"",NA,445.624824799997,444.525258399997,444.525258399997,444.525258399997,444.525258399997,444.525258399997,444.525258399997,444.525258399997,444.525258399997,444.525258399997,5,1.09123289999843,445.974843099997,445.974843099997,445.974843099997,445.974843099997,106,"['return']","[1.1453978000063216]",NA,NA,"",NA,194,"2022-12-23_11h05.26.540","PEmem_Phase-02_retrieval","2022.2.4","None",NA,1
"240","3.19169520642161","196.588235294118","286.588235294118","106.588235294118","low","182.963419476398","maps/google_map_1.png","13.6248158177196","objects/1/1_27.jpg","0.0","indoors","Toy_WoodenPlainSingle.jpg","old",0,156,156,156,0,0,0,0,NA,NA,"",NA,NA,NA,NA,NA,NA,NA,NA,NA,"",NA,NA,NA,"",NA,NA,NA,"",NA,449.358283499998,447.384761499998,447.384761499998,447.384761499998,447.384761499998,447.384761499998,447.384761499998,447.384761499998,447.384761499998,447.384761499998,5,1.96065990000352,449.709236899995,449.709236899995,449.709236899995,449.709236899995,118,"['return']","[0.7195480000009411]",NA,NA,"",NA,194,"2022-12-23_11h05.26.540","PEmem_Phase-02_retrieval","2022.2.4","None",NA,1
"242","None","None","None","None","None","None","maps/google_map_1.png","None","objects/2/2_94.jpg","None","indoors","Lollipop_Grape.jpg","new",0,157,157,157,NA,NA,NA,NA,NA,NA,"",NA,NA,NA,NA,NA,NA,NA,NA,NA,"",NA,NA,NA,"",NA,NA,NA,"",NA,451.624920999995,450.699829999998,450.699829999998,450.699829999998,450.699829999998,450.699829999998,450.699829999998,450.699829999998,450.699829999998,450.699829999998,1,0.913602400003583,451.866615299994,NA,NA,NA,NA,"","",NA,NA,"",NA,194,"2022-12-23_11h05.26.540","PEmem_Phase-02_retrieval","2022.2.4","None",NA,1
"243","None","None","None","None","None","None","maps/google_map_1.png","None","objects/2/2_25.jpg","None","indoors","Loofa.jpg","new",0,158,158,158,NA,NA,NA,NA,NA,NA,"",NA,NA,NA,NA,NA,NA,NA,NA,NA,"",NA,NA,NA,"",NA,NA,NA,"",NA,452.749960399997,452.117570599999,452.117570599999,452.117570599999,452.117570599999,452.117570599999,452.117570599999,452.117570599999,452.117570599999,452.117570599999,1,0.617216500002542,452.991754199997,NA,NA,NA,NA,"","",NA,NA,"",NA,194,"2022-12-23_11h05.26.540","PEmem_Phase-02_retrieval","2022.2.4","None",NA,1
"244","None","None","None","None","None","None","maps/google_map_1.png","None","objects/2/2_101.jpg","None","outdoors","Motorcycle.jpg","new",0,159,159,159,NA,NA,NA,NA,NA,NA,"",NA,NA,NA,NA,NA,NA,NA,NA,NA,"",NA,NA,NA,"",NA,NA,NA,"",NA,453.825689599995,453.244294799995,453.244294799995,453.244294799995,453.244294799995,453.244294799995,453.244294799995,453.244294799995,453.244294799995,453.244294799995,1,0.569142500004091,454.066664399994,NA,NA,NA,NA,"","",NA,NA,"",NA,194,"2022-12-23_11h05.26.540","PEmem_Phase-02_retrieval","2022.2.4","None",NA,1
"245","None","None","None","None","None","None","maps/google_map_1.png","None","objects/2/2_48.jpg","None","outdoors","Toy_SeeSaw.jpg","new",0,160,160,160,NA,NA,NA,NA,NA,NA,"",NA,NA,NA,NA,NA,NA,NA,NA,NA,"",NA,NA,NA,"",NA,NA,NA,"",NA,455.183367499994,454.323998599997,454.323998599997,454.323998599997,454.323998599997,454.323998599997,454.323998599997,454.323998599997,454.323998599997,454.323998599997,1,0.850896300005843,455.424820099994,NA,NA,NA,NA,"","",NA,NA,"",NA,194,"2022-12-23_11h05.26.540","PEmem_Phase-02_retrieval","2022.2.4","None",NA,1
"246","3.78808632752636","196.588235294118","286.588235294118","106.588235294118","low","217.151445526989","maps/google_map_1.png","20.5632102328712","objects/1/1_141.jpg","0.0","outdoors","Owl.jpg","old",0,161,161,161,0,0,0,0,NA,NA,"",NA,NA,NA,NA,NA,NA,NA,NA,NA,"",NA,NA,NA,"",NA,NA,NA,"",NA,456.966776499998,455.683775199999,455.683775199999,455.683775199999,455.683775199999,455.683775199999,455.683775199999,455.683775199999,455.683775199999,455.683775199999,5,1.26680790000682,457.325056599999,457.325056599999,457.325056599999,457.325056599999,26.5,"['return']","[0.6413638000012725]",NA,NA,"",NA,194,"2022-12-23_11h05.26.540","PEmem_Phase-02_retrieval","2022.2.4","None",NA,1
