"","radians","pos_1","pos_2","type","degrees","map_file","PE","object","isFiller","outdoors_response","stimulus","old_new","trials.thisRepN","trials.thisTrialN","trials.thisN","trials.thisIndex","location_loop.thisRepN","location_loop.thisTrialN","location_loop.thisN","location_loop.thisIndex","instructions_text.started","key_resp.started","key_resp.keys","key_resp.rt","Instructions_2_text.started","instr_2_resp.started","instr_2_resp.keys","instr_2_resp.rt","Instructions_3_text.started","Instr_3_resp.started","Instr_3_resp.keys","Instr_3_resp.rt","Instr_4_text.started","Instr_4_resp.started","Instr_4_resp.keys","Instr_4_resp.rt","text_4.started","image_feedb.started","recog_resp.started","recog_prompt.started","recog_option_left.started","recog_option_right.started","recog_resp.keys","recog_resp.rt","image_feedb_2.started","conf_resp.started","conf_prompt.started","conf_1.started","conf_2.started","conf_3.started","conf_4.started","conf_5.started","conf_6.started","conf_resp.keys","conf_resp.rt","text_4.stopped","image_2.started","predict_prompt.started","line.started","response","key_resp_2.keys","key_resp_2.rt","instructions_text_2.started","key_resp_3.started","key_resp_3.keys","key_resp_3.rt","participant","date","expName","psychopyVersion","frameRate","X","recog_acc"
"5","None","None","None","None","None","maps/google_map_1.png","None","objects/2/2_96.jpg","None","outdoors","Sphinx.jpg","new",0,0,0,0,NA,NA,NA,NA,NA,NA,"",NA,NA,NA,"",NA,NA,NA,"",NA,NA,NA,"",NA,116.80010775,107.4882235,107.4882235,107.4882235,107.4882235,107.4882235,"right",3.264808292,111.088643917,111.088643917,111.088643917,111.088643917,111.088643917,111.088643917,111.088643917,111.088643917,111.088643917,4,5.68705408300002,117.050374083,NA,NA,NA,NA,"","",NA,NA,"",NA,991,"2022-11-25_14h45.18.478","test3","2022.2.4",59.709676505999,NA,0
"6","4.70120448179272","238.319327731092","230.27731092437","singletons","269.495798319328","maps/google_map_1.png","None","objects/1/1_71.jpg","0.0","outdoors","TotemPole.jpg","old",0,1,1,1,0,0,0,0,NA,NA,"",NA,NA,NA,"",NA,NA,NA,"",NA,NA,NA,"",NA,124.883943375,117.3009435,117.3009435,117.3009435,117.3009435,117.3009435,"right",3.092413459,120.686558458,120.686558458,120.686558458,120.686558458,120.686558458,120.686558458,120.686558458,120.686558458,120.686558458,6,4.17642387500007,125.402672167,125.402672167,125.402672167,125.402672167,64,"['return']","[15.448213333999888]",NA,NA,"",NA,991,"2022-11-25_14h45.18.478","test3","2022.2.4",59.709676505999,NA,1
"8","None","None","None","None","None","maps/google_map_1.png","None","objects/2/2_81.jpg","None","outdoors","ChariotGold.jpg","new",0,2,2,2,NA,NA,NA,NA,NA,NA,"",NA,NA,NA,"",NA,NA,NA,"",NA,NA,NA,"",NA,148.900836625,141.101291167,141.101291167,141.101291167,141.101291167,141.101291167,"left",2.96684408299996,144.370637833,144.370637833,144.370637833,144.370637833,144.370637833,144.370637833,144.370637833,144.370637833,144.370637833,2,4.50119533300006,149.150793208,NA,NA,NA,NA,"","",NA,NA,"",NA,991,"2022-11-25_14h45.18.478","test3","2022.2.4",59.709676505999,NA,0
"9","None","None","None","None","None","maps/google_map_1.png","None","objects/2/2_107.jpg","None","indoors","Plunger.jpg","new",0,3,3,3,NA,NA,NA,NA,NA,NA,"",NA,NA,NA,"",NA,NA,NA,"",NA,NA,NA,"",NA,152.550928333,149.4007165,149.4007165,149.4007165,149.4007165,149.4007165,"left",1.92400395799996,151.619725083,151.619725083,151.619725083,151.619725083,151.619725083,151.619725083,151.619725083,151.619725083,151.619725083,2,0.906768833000001,152.801239958,NA,NA,NA,NA,"","",NA,NA,"",NA,991,"2022-11-25_14h45.18.478","test3","2022.2.4",59.709676505999,NA,0
"10","2.08531791257233","148.319327731092","328.319327731092","medium","119.540517281217","maps/google_map_1.png","61.2211895501241","objects/1/1_110.jpg","0.0","outdoors","Boot_Rain.jpg","old",0,4,4,4,0,0,0,0,NA,NA,"",NA,NA,NA,"",NA,NA,NA,"",NA,NA,NA,"",NA,156.334474292,153.052115417,153.052115417,153.052115417,153.052115417,153.052115417,"right",1.11399641700007,154.454259,154.454259,154.454259,154.454259,154.454259,154.454259,154.454259,154.454259,154.454259,5,1.86047866699994,156.821541125,156.821541125,156.821541125,156.821541125,92,"['return']","[2.0691808330000185]",NA,NA,"",NA,991,"2022-11-25_14h45.18.478","test3","2022.2.4",59.709676505999,NA,1
"12","1.0368956364235502","148.319327731092","328.319327731092","low","59.43987724721","maps/google_map_1.png","1.12054951611758","objects/1/1_6.jpg","0.0","indoors","Syrup_Maple.jpg","old",0,5,5,5,0,0,0,0,NA,NA,"",NA,NA,NA,"",NA,NA,NA,"",NA,NA,NA,"",NA,163.451489208,159.151738125,159.151738125,159.151738125,159.151738125,159.151738125,"right",2.34457874999998,161.787774417,161.787774417,161.787774417,161.787774417,161.787774417,161.787774417,161.787774417,161.787774417,161.787774417,6,1.64128299999993,163.933854917,163.933854917,163.933854917,163.933854917,60.5,"['return']","[3.9565914579999344]",NA,NA,"",NA,991,"2022-11-25_14h45.18.478","test3","2022.2.4",59.709676505999,NA,1
"14","6.22893896519562","71.8991596638655","251.89915966386602","low","357.072934310577","maps/google_map_1.png","15.173774646711099","objects/1/1_67.jpg","0.0","indoors","Stamp.jpg","old",0,6,6,6,0,0,0,0,NA,NA,"",NA,NA,NA,"",NA,NA,NA,"",NA,NA,NA,"",NA,173.901436375,168.152762792,168.152762792,168.152762792,168.152762792,168.152762792,"right",3.501503458,171.954395792,171.954395792,171.954395792,171.954395792,171.954395792,171.954395792,171.954395792,171.954395792,171.954395792,4,1.92393720900009,174.378711,174.378711,174.378711,174.378711,90.5,"['return']","[3.3004833329999883]",NA,NA,"",NA,991,"2022-11-25_14h45.18.478","test3","2022.2.4",59.709676505999,NA,1
"16","None","None","None","None","None","maps/google_map_1.png","None","objects/2/2_112.jpg","None","indoors","HairClipper.jpg","new",0,7,7,7,NA,NA,NA,NA,NA,NA,"",NA,NA,NA,"",NA,NA,NA,"",NA,NA,NA,"",NA,181.068024333,177.952394917,177.952394917,177.952394917,177.952394917,177.952394917,"left",1.51585750099991,179.770980667,179.770980667,179.770980667,179.770980667,179.770980667,179.770980667,179.770980667,179.770980667,179.770980667,2,1.26799775000006,181.318954458,NA,NA,NA,NA,"","",NA,NA,"",NA,991,"2022-11-25_14h45.18.478","test3","2022.2.4",59.709676505999,NA,0
"17","None","None","None","None","None","maps/google_map_1.png","None","objects/2/2_119.jpg","None","outdoors","Statue_Jesus.jpg","new",0,8,8,8,NA,NA,NA,NA,NA,NA,"",NA,NA,NA,"",NA,NA,NA,"",NA,NA,NA,"",NA,184.718215083,181.569036042,181.569036042,181.569036042,181.569036042,181.569036042,"left",1.86830404199998,183.738219792,183.738219792,183.738219792,183.738219792,183.738219792,183.738219792,183.738219792,183.738219792,183.738219792,2,0.956489251000107,184.968318583,NA,NA,NA,NA,"","",NA,NA,"",NA,991,"2022-11-25_14h45.18.478","test3","2022.2.4",59.709676505999,NA,0
"18","1.38722744858078","148.319327731092","328.319327731092","low","79.5225925938027","maps/google_map_1.png","21.203264862710302","objects/1/1_125.jpg","0.0","outdoors","Pickaxe.jpg","old",0,9,9,9,0,0,0,0,NA,NA,"",NA,NA,NA,"",NA,NA,NA,"",NA,NA,NA,"",NA,187.501408708,185.219161583,185.219161583,185.219161583,185.219161583,185.219161583,"right",1.11404516699997,186.621821833,186.621821833,186.621821833,186.621821833,186.621821833,186.621821833,186.621821833,186.621821833,186.621821833,5,0.8475058329999,187.981272,187.981272,187.981272,187.981272,25.5,"['return']","[3.116276667000079]",NA,NA,"",NA,991,"2022-11-25_14h45.18.478","test3","2022.2.4",59.709676505999,NA,1
"20","5.5995671402764","71.8991596638655","251.89915966386602","low","320.994294665526","maps/google_map_1.png","20.9048649983393","objects/1/1_96.jpg","0.0","outdoors","Backpack_Travel.jpg","old",0,10,10,10,0,0,0,0,NA,NA,"",NA,NA,NA,"",NA,NA,NA,"",NA,NA,NA,"",NA,194.718814417,191.369324875,191.369324875,191.369324875,191.369324875,191.369324875,"right",1.40910441700009,193.073087417,193.073087417,193.073087417,193.073087417,193.073087417,193.073087417,193.073087417,193.073087417,193.073087417,6,1.62288216700006,195.19673475,195.19673475,195.19673475,195.19673475,37.5,"['return']","[2.785831375999919]",NA,NA,"",NA,991,"2022-11-25_14h45.18.478","test3","2022.2.4",59.709676505999,NA,1
"22","None","None","None","None","None","maps/google_map_1.png","None","objects/2/2_50.jpg","None","indoors","DVDPlayer.jpg","new",0,11,11,11,NA,NA,NA,NA,NA,NA,"",NA,NA,NA,"",NA,NA,NA,"",NA,NA,NA,"",NA,203.018538583,198.253109917,198.253109917,198.253109917,198.253109917,198.253109917,"left",2.29895479200002,200.83878925,200.83878925,200.83878925,200.83878925,200.83878925,200.83878925,200.83878925,200.83878925,200.83878925,3,2.15664104199993,203.268366667,NA,NA,NA,NA,"","",NA,NA,"",NA,991,"2022-11-25_14h45.18.478","test3","2022.2.4",59.709676505999,NA,0
"23","3.07446109398633","71.8991596638655","251.89915966386602","high","176.24299264889802","maps/google_map_1.png","165.656167014968","objects/1/1_130.jpg","0.0","indoors","PillBottle_Spilled.jpg","old",0,12,12,12,0,0,0,0,NA,NA,"",NA,NA,NA,"",NA,NA,NA,"",NA,NA,NA,"",NA,207.101882458,203.518811333,203.518811333,203.518811333,203.518811333,203.518811333,"right",2.11716349999995,205.938676792,205.938676792,205.938676792,205.938676792,205.938676792,205.938676792,205.938676792,205.938676792,205.938676792,5,1.1305812920001,207.581540875,207.581540875,207.581540875,207.581540875,100,"['return']","[1.5535114999998996]",NA,NA,"",NA,991,"2022-11-25_14h45.18.478","test3","2022.2.4",59.709676505999,NA,1
"25","1.2201187464001002","148.319327731092","328.319327731092","low","69.9431128509614","maps/google_map_1.png","11.623785119869002","objects/1/1_101.jpg","0.0","indoors","Chicken_FriedWing.jpg","old",0,13,13,13,0,0,0,0,NA,NA,"",NA,NA,NA,"",NA,NA,NA,"",NA,NA,NA,"",NA,214.78618625,209.405074167,209.405074167,209.405074167,209.405074167,209.405074167,"right",3.46298387500008,213.156827292,213.156827292,213.156827292,213.156827292,213.156827292,213.156827292,213.156827292,213.156827292,213.156827292,6,1.6116270419999,213.156827292,215.282467958,215.282467958,215.282467958,81.5,"['return']","[1.6122627500000135]",NA,NA,"",NA,991,"2022-11-25_14h45.18.478","test3","2022.2.4",59.709676505999,NA,1
"27","5.7887617121071395","71.8991596638655","251.89915966386602","low","331.839843369199","maps/google_map_1.png","10.0593162946665","objects/1/1_76.jpg","0.0","indoors","CoffeePot.jpg","old",0,14,14,14,0,0,0,0,NA,NA,"",NA,NA,NA,"",NA,NA,NA,"",NA,NA,NA,"",NA,222.3023235,217.169672417,217.169672417,217.169672417,217.169672417,217.169672417,"right",1.37238008299994,218.838322583,218.838322583,218.838322583,218.838322583,218.838322583,218.838322583,218.838322583,218.838322583,218.838322583,6,3.43370641700005,222.782574667,222.782574667,222.782574667,222.782574667,18.5,"['return']","[4.353058251000107]",NA,NA,"",NA,991,"2022-11-25_14h45.18.478","test3","2022.2.4",59.709676505999,NA,1
"29","5.17959802888803","71.8991596638655","251.89915966386602","low","296.91963222925","maps/google_map_1.png","44.9795274346153","objects/1/1_69.jpg","0.0","indoors","Protractor.jpg","old",0,15,15,15,0,0,0,0,NA,NA,"",NA,NA,NA,"",NA,NA,NA,"",NA,NA,NA,"",NA,229.819094458,227.40314125,227.40314125,227.40314125,227.40314125,227.40314125,"right",1.20136474999993,228.9051245,228.9051245,228.9051245,228.9051245,228.9051245,228.9051245,228.9051245,228.9051245,228.9051245,6,0.891031666999993,230.299163917,230.299163917,230.299163917,230.299163917,262.5,"['return']","[2.812364625999976]",NA,NA,"",NA,991,"2022-11-25_14h45.18.478","test3","2022.2.4",59.709676505999,NA,1
"31","None","None","None","None","None","maps/google_map_1.png","None","objects/2/2_99.jpg","None","indoors","WaterCooler.jpg","new",0,16,16,16,NA,NA,NA,NA,NA,NA,"",NA,NA,NA,"",NA,NA,NA,"",NA,NA,NA,"",NA,237.135541917,233.386893125,233.386893125,233.386893125,233.386893125,233.386893125,"left",1.62215612500006,235.30462375,235.30462375,235.30462375,235.30462375,235.30462375,235.30462375,235.30462375,235.30462375,235.30462375,3,1.80472137499999,237.385630917,NA,NA,NA,NA,"","",NA,NA,"",NA,991,"2022-11-25_14h45.18.478","test3","2022.2.4",59.709676505999,NA,0
"32","5.41352391396646","71.8991596638655","251.89915966386602","low","310.329396342027","maps/google_map_1.png","31.5697633218389","objects/1/1_129.jpg","0.0","indoors","Shoes_DutchClogs.jpg","old",0,17,17,17,0,0,0,0,NA,NA,"",NA,NA,NA,"",NA,NA,NA,"",NA,NA,NA,"",NA,241.035687833,237.636528,237.636528,237.636528,237.636528,237.636528,"right",1.78057887600005,239.705079875,239.705079875,239.705079875,239.705079875,239.705079875,239.705079875,239.705079875,239.705079875,239.705079875,6,1.30097720900005,241.515498333,241.515498333,241.515498333,241.515498333,277.5,"['return']","[1.4705518750000692]",NA,NA,"",NA,991,"2022-11-25_14h45.18.478","test3","2022.2.4",59.709676505999,NA,1
"34","4.2919573003708305","148.319327731092","328.319327731092","high","246.03576881106702","maps/google_map_1.png","172.28355892002602","objects/1/1_64.jpg","0.0","indoors","Socks_Baby.jpg","old",0,18,18,18,0,0,0,0,NA,NA,"",NA,NA,NA,"",NA,NA,NA,"",NA,NA,NA,"",NA,246.752818458,243.257623667,243.257623667,243.257623667,243.257623667,243.257623667,"right",2.10093250000011,245.656618625,245.656618625,245.656618625,245.656618625,245.656618625,245.656618625,245.656618625,245.656618625,245.656618625,4,1.07761025000002,247.234523708,247.234523708,247.234523708,247.234523708,18.5,"['return']","[5.882925834000048]",NA,NA,"",NA,991,"2022-11-25_14h45.18.478","test3","2022.2.4",59.709676505999,NA,1
"36","None","None","None","None","None","maps/google_map_1.png","None","objects/2/2_42.jpg","None","outdoors","DivingBoard.jpg","new",0,19,19,19,NA,NA,NA,NA,NA,NA,"",NA,NA,NA,"",NA,NA,NA,"",NA,NA,NA,"",NA,256.919597583,253.386969542,253.386969542,253.386969542,253.386969542,253.386969542,"left",1.68590029199993,255.371470792,255.371470792,255.371470792,255.371470792,255.371470792,255.371470792,255.371470792,255.371470792,255.371470792,1,1.52940254199996,257.169645792,NA,NA,NA,NA,"","",NA,NA,"",NA,991,"2022-11-25_14h45.18.478","test3","2022.2.4",59.709676505999,NA,0
"37","2.53825212234297","71.8991596638655","251.89915966386602","high","145.50489873303698","maps/google_map_1.png","163.60573906917102","objects/1/1_4.jpg","0.0","outdoors","Jet.jpg","old",0,20,20,20,0,0,0,0,NA,NA,"",NA,NA,NA,"",NA,NA,NA,"",NA,NA,NA,"",NA,260.119474125,257.42022875,257.42022875,257.42022875,257.42022875,257.42022875,"right",1.23579833299993,258.956649292,258.956649292,258.956649292,258.956649292,258.956649292,258.956649292,258.956649292,258.956649292,258.956649292,5,1.13568558299983,260.601881958,260.601881958,260.601881958,260.601881958,246,"['return']","[2.5514998339998556]",NA,NA,"",NA,991,"2022-11-25_14h45.18.478","test3","2022.2.4",59.709676505999,NA,1
"39","None","None","None","None","None","maps/google_map_1.png","None","objects/2/2_48.jpg","None","outdoors","Archery_ArrowsBows.jpg","new",0,21,21,21,NA,NA,NA,NA,NA,NA,"",NA,NA,NA,"",NA,NA,NA,"",NA,NA,NA,"",NA,267.286868875,263.420725,263.420725,263.420725,263.420725,263.420725,"left",1.78008220899994,265.488859625,265.488859625,265.488859625,265.488859625,265.488859625,265.488859625,265.488859625,265.488859625,265.488859625,2,1.78009695799994,267.536886292,NA,NA,NA,NA,"","",NA,NA,"",NA,991,"2022-11-25_14h45.18.478","test3","2022.2.4",59.709676505999,NA,0
"40","None","None","None","None","None","maps/google_map_1.png","None","objects/2/2_115.jpg","None","indoors","Maraca.jpg","new",0,22,22,22,NA,NA,NA,NA,NA,NA,"",NA,NA,NA,"",NA,NA,NA,"",NA,NA,NA,"",NA,269.703515417,267.78711825,267.78711825,267.78711825,267.78711825,267.78711825,"left",1.23481650099995,269.323527375,269.323527375,269.323527375,269.323527375,269.323527375,269.323527375,269.323527375,269.323527375,269.323527375,2,0.360688375999985,269.953561458,NA,NA,NA,NA,"","",NA,NA,"",NA,991,"2022-11-25_14h45.18.478","test3","2022.2.4",59.709676505999,NA,0
"41","None","None","None","None","None","maps/google_map_1.png","None","objects/2/2_39.jpg","None","indoors","Blackboard.jpg","new",0,23,23,23,NA,NA,NA,NA,NA,NA,"",NA,NA,NA,"",NA,NA,NA,"",NA,NA,NA,"",NA,271.987094542,270.204773708,270.204773708,270.204773708,270.204773708,270.204773708,"left",1.03732183399995,271.540094542,271.540094542,271.540094542,271.540094542,271.540094542,271.540094542,271.540094542,271.540094542,271.540094542,2,0.429193791999865,272.236375667,NA,NA,NA,NA,"","",NA,NA,"",NA,991,"2022-11-25_14h45.18.478","test3","2022.2.4",59.709676505999,NA,0
"42","None","None","None","None","None","maps/google_map_1.png","None","objects/2/2_108.jpg","None","outdoors","BasketballHoop.jpg","new",0,24,24,24,NA,NA,NA,NA,NA,NA,"",NA,NA,NA,"",NA,NA,NA,"",NA,NA,NA,"",NA,274.686760125,272.48705075,272.48705075,272.48705075,272.48705075,272.48705075,"left",1.16468054199993,273.940324792,273.940324792,273.940324792,273.940324792,273.940324792,273.940324792,273.940324792,273.940324792,273.940324792,2,0.727980624999987,274.936113875,NA,NA,NA,NA,"","",NA,NA,"",NA,991,"2022-11-25_14h45.18.478","test3","2022.2.4",59.709676505999,NA,0
"43","None","None","None","None","None","maps/google_map_1.png","None","objects/2/2_93.jpg","None","indoors","Garbage_Can.jpg","new",0,25,25,25,NA,NA,NA,NA,NA,NA,"",NA,NA,NA,"",NA,NA,NA,"",NA,NA,NA,"",NA,279.936883333,275.187454333,275.187454333,275.187454333,275.187454333,275.187454333,"left",1.20870449999995,276.689912625,276.689912625,276.689912625,276.689912625,276.689912625,276.689912625,276.689912625,276.689912625,276.689912625,2,3.22445712499996,280.186961417,NA,NA,NA,NA,"","",NA,NA,"",NA,991,"2022-11-25_14h45.18.478","test3","2022.2.4",59.709676505999,NA,0
"44","None","None","None","None","None","maps/google_map_1.png","None","objects/2/2_121.jpg","None","indoors","Toy_ElephantPlastic.jpg","new",0,26,26,26,NA,NA,NA,NA,NA,NA,"",NA,NA,NA,"",NA,NA,NA,"",NA,NA,NA,"",NA,282.887109542,280.437482292,280.437482292,280.437482292,280.437482292,280.437482292,"left",1.69933570899991,282.422377375,282.422377375,282.422377375,282.422377375,282.422377375,282.422377375,282.422377375,282.422377375,282.422377375,2,0.445540333999929,283.136415708,NA,NA,NA,NA,"","",NA,NA,"",NA,991,"2022-11-25_14h45.18.478","test3","2022.2.4",59.709676505999,NA,0
"45","None","None","None","None","None","maps/google_map_1.png","None","objects/2/2_75.jpg","None","indoors","Cabinet_Display.jpg","new",0,27,27,27,NA,NA,NA,NA,NA,NA,"",NA,NA,NA,"",NA,NA,NA,"",NA,NA,NA,"",NA,286.736280625,283.387518042,283.387518042,283.387518042,283.387518042,283.387518042,"left",2.73125858399987,286.407137292,286.407137292,286.407137292,286.407137292,286.407137292,286.407137292,286.407137292,286.407137292,286.407137292,2,0.297450249999997,286.986534333,NA,NA,NA,NA,"","",NA,NA,"",NA,991,"2022-11-25_14h45.18.478","test3","2022.2.4",59.709676505999,NA,0
"46","None","None","None","None","None","maps/google_map_1.png","None","objects/2/2_83.jpg","None","indoors","Almond.jpg","new",0,28,28,28,NA,NA,NA,NA,NA,NA,"",NA,NA,NA,"",NA,NA,NA,"",NA,NA,NA,"",NA,289.853348458,287.237817333,287.237817333,287.237817333,287.237817333,287.237817333,"left",1.08083841699988,288.605774667,288.605774667,288.605774667,288.605774667,288.605774667,288.605774667,288.605774667,288.605774667,288.605774667,1,1.21832662500003,290.103159042,NA,NA,NA,NA,"","",NA,NA,"",NA,991,"2022-11-25_14h45.18.478","test3","2022.2.4",59.709676505999,NA,0
"47","None","None","None","None","None","maps/google_map_1.png","None","objects/2/2_111.jpg","None","outdoors","Sign_NoParking.jpg","new",0,29,29,29,NA,NA,NA,NA,NA,NA,"",NA,NA,NA,"",NA,NA,NA,"",NA,NA,NA,"",NA,291.954076667,290.355493125,290.355493125,290.355493125,290.355493125,290.355493125,"left",0.965693750000014,291.62294125,291.62294125,291.62294125,291.62294125,291.62294125,291.62294125,291.62294125,291.62294125,291.62294125,1,0.313996500999906,292.20355775,NA,NA,NA,NA,"","",NA,NA,"",NA,991,"2022-11-25_14h45.18.478","test3","2022.2.4",59.709676505999,NA,0
"48","3.1750354808590098","238.319327731092","70.3865546218487","singletons","182.008403361345","maps/google_map_1.png","None","objects/1/1_134.jpg","0.0","outdoors","TowerEiffel.jpg","old",0,30,30,30,0,0,0,0,NA,NA,"",NA,NA,NA,"",NA,NA,NA,"",NA,NA,NA,"",NA,295.203909292,292.454083875,292.454083875,292.454083875,292.454083875,292.454083875,"right",1.159695833,293.9052925,293.9052925,293.9052925,293.9052925,293.9052925,293.9052925,293.9052925,293.9052925,293.9052925,6,1.27368854200006,295.6826825,295.6826825,295.6826825,295.6826825,184,"['return']","[4.344081792000111]",NA,NA,"",NA,991,"2022-11-25_14h45.18.478","test3","2022.2.4",59.709676505999,NA,1
"50","2.2555394032633997","71.8991596638655","251.89915966386602","high","129.298437129749","maps/google_map_1.png","147.399277465884","objects/1/1_93.jpg","0.0","outdoors","Bird_Toucan.jpg","old",0,31,31,31,0,0,0,0,NA,NA,"",NA,NA,NA,"",NA,NA,NA,"",NA,NA,NA,"",NA,302.820460292,300.287748167,300.287748167,300.287748167,300.287748167,300.287748167,"right",1.378437125,301.956047208,301.956047208,301.956047208,301.956047208,301.956047208,301.956047208,301.956047208,301.956047208,301.956047208,6,0.845135625999887,303.304625417,303.304625417,303.304625417,303.304625417,184,"['return']","[0.8051926249999042]",NA,NA,"",NA,991,"2022-11-25_14h45.18.478","test3","2022.2.4",59.709676505999,NA,1
"52","None","None","None","None","None","maps/google_map_1.png","None","objects/2/2_10.jpg","None","outdoors","TrapAnimal.jpg","new",0,32,32,32,NA,NA,NA,NA,NA,NA,"",NA,NA,NA,"",NA,NA,NA,"",NA,NA,NA,"",NA,307.320718958,304.371181292,304.371181292,304.371181292,304.371181292,304.371181292,"left",1.734666834,306.407294417,306.407294417,306.407294417,306.407294417,306.407294417,306.407294417,306.407294417,306.407294417,306.407294417,2,0.88455383400003,307.570354208,NA,NA,NA,NA,"","",NA,NA,"",NA,991,"2022-11-25_14h45.18.478","test3","2022.2.4",59.709676505999,NA,0
"53","None","None","None","None","None","maps/google_map_1.png","None","objects/2/2_135.jpg","None","outdoors","Toy_Slide.jpg","new",0,33,33,33,NA,NA,NA,NA,NA,NA,"",NA,NA,NA,"",NA,NA,NA,"",NA,NA,NA,"",NA,311.18692125,307.8211615,307.8211615,307.8211615,307.8211615,307.8211615,"left",1.03701341699991,309.157008542,309.157008542,309.157008542,309.157008542,309.157008542,309.157008542,309.157008542,309.157008542,309.157008542,3,1.99832633300014,311.437170542,NA,NA,NA,NA,"","",NA,NA,"",NA,991,"2022-11-25_14h45.18.478","test3","2022.2.4",59.709676505999,NA,0
"54","1.1046566948971699","148.319327731092","328.319327731092","low","63.3242691342329","maps/google_map_1.png","5.0049414031405","objects/1/1_54.jpg","0.0","outdoors","LeafBlower.jpg","old",0,34,34,34,0,0,0,0,NA,NA,"",NA,NA,NA,"",NA,NA,NA,"",NA,NA,NA,"",NA,314.187440125,311.687851667,311.687851667,311.687851667,311.687851667,311.687851667,"right",1.09762170900001,313.072857583,313.072857583,313.072857583,313.072857583,313.072857583,313.072857583,313.072857583,313.072857583,313.072857583,6,1.09569795899995,314.668439625,314.668439625,314.668439625,314.668439625,52.5,"['return']","[2.327923749999968]",NA,NA,"",NA,991,"2022-11-25_14h45.18.478","test3","2022.2.4",59.709676505999,NA,1
"56","5.80886038773308","71.8991596638655","251.89915966386602","low","332.99199674903","maps/google_map_1.png","8.907162914835391","objects/1/1_29.jpg","0.0","outdoors","WateringCan_Antique.jpg","old",0,35,35,35,0,0,0,0,NA,NA,"",NA,NA,NA,"",NA,NA,NA,"",NA,NA,NA,"",NA,320.1208195,317.2730275,317.2730275,317.2730275,317.2730275,317.2730275,"right",1.48003570799995,319.040163583,319.040163583,319.040163583,319.040163583,319.040163583,319.040163583,319.040163583,319.040163583,319.040163583,6,1.04785520899998,320.5995975,320.5995975,320.5995975,320.5995975,59,"['return']","[1.2780960830001504]",NA,NA,"",NA,991,"2022-11-25_14h45.18.478","test3","2022.2.4",59.709676505999,NA,1
"58","None","None","None","None","None","maps/google_map_1.png","None","objects/2/2_23.jpg","None","indoors","KitchenCloth.jpg","new",0,36,36,36,NA,NA,NA,NA,NA,NA,"",NA,NA,NA,"",NA,NA,NA,"",NA,NA,NA,"",NA,324.504462708,322.139519042,322.139519042,322.139519042,322.139519042,322.139519042,"left",1.00857237499997,323.441413,323.441413,323.441413,323.441413,323.441413,323.441413,323.441413,323.441413,323.441413,3,1.04516229199987,324.754014708,NA,NA,NA,NA,"","",NA,NA,"",NA,991,"2022-11-25_14h45.18.478","test3","2022.2.4",59.709676505999,NA,0
"59","None","None","None","None","None","maps/google_map_1.png","None","objects/2/2_76.jpg","None","outdoors","Fence_Wooden.jpg","new",0,37,37,37,NA,NA,NA,NA,NA,NA,"",NA,NA,NA,"",NA,NA,NA,"",NA,NA,NA,"",NA,327.521086208,325.006523167,325.006523167,325.006523167,325.006523167,325.006523167,"left",1.30011000000002,326.608282417,326.608282417,326.608282417,326.608282417,326.608282417,326.608282417,326.608282417,326.608282417,326.608282417,3,0.893814458999827,327.770887958,NA,NA,NA,NA,"","",NA,NA,"",NA,991,"2022-11-25_14h45.18.478","test3","2022.2.4",59.709676505999,NA,0
"60","None","None","None","None","None","maps/google_map_1.png","None","objects/2/2_130.jpg","None","indoors","Monitor.jpg","new",0,38,38,38,NA,NA,NA,NA,NA,NA,"",NA,NA,NA,"",NA,NA,NA,"",NA,NA,NA,"",NA,329.987154917,328.021426,328.021426,328.021426,328.021426,328.021426,"left",0.958326000000056,329.273443917,329.273443917,329.273443917,329.273443917,329.273443917,329.273443917,329.273443917,329.273443917,329.273443917,2,0.681800625999927,330.237527125,NA,NA,NA,NA,"","",NA,NA,"",NA,991,"2022-11-25_14h45.18.478","test3","2022.2.4",59.709676505999,NA,0
"61","4.59030204690321","148.319327731092","328.319327731092","high","263.13833389891005","maps/google_map_1.png","155.180993832182","objects/1/1_10.jpg","0.0","indoors","Playdoh.jpg","old",0,39,39,39,0,0,0,0,NA,NA,"",NA,NA,NA,"",NA,NA,NA,"",NA,NA,NA,"",NA,332.654544125,330.488527,330.488527,330.488527,330.488527,330.488527,"right",1.07637837499999,331.85930375,331.85930375,331.85930375,331.85930375,331.85930375,331.85930375,331.85930375,331.85930375,331.85930375,5,0.77788829199983,333.133672,333.133672,333.133672,333.133672,355.5,"['return']","[3.247626541999921]",NA,NA,"",NA,991,"2022-11-25_14h45.18.478","test3","2022.2.4",59.709676505999,NA,1
"63","0.63243641477725","148.319327731092","328.319327731092","low","36.2543167706704","maps/google_map_1.png","22.065010960422","objects/1/1_30.jpg","0.0","outdoors","Boat_Ferry.jpg","old",0,40,40,40,0,0,0,0,NA,NA,"",NA,NA,NA,"",NA,NA,NA,"",NA,NA,NA,"",NA,339.8873485,336.655241625,336.655241625,336.655241625,336.655241625,336.655241625,"right",1.92872987599992,338.873702208,338.873702208,338.873702208,338.873702208,338.873702208,338.873702208,338.873702208,338.873702208,338.873702208,5,0.990397584000107,340.367269167,340.367269167,340.367269167,340.367269167,22,"['return']","[2.5579173340000807]",NA,NA,"",NA,991,"2022-11-25_14h45.18.478","test3","2022.2.4",59.709676505999,NA,1
"65","1.56623002974933","148.319327731092","328.319327731092","low","89.7838870556942","maps/google_map_1.png","31.464559324601804","objects/1/1_58.jpg","0.0","indoors","Candle_ChristmasDecor.jpg","old",0,41,41,41,0,0,0,0,NA,NA,"",NA,NA,NA,"",NA,NA,NA,"",NA,NA,NA,"",NA,345.987867667,343.189004458,343.189004458,343.189004458,343.189004458,343.189004458,"right",1.49817916699988,344.975261458,344.975261458,344.975261458,344.975261458,344.975261458,344.975261458,344.975261458,344.975261458,344.975261458,6,0.988871125999935,346.467999917,346.467999917,346.467999917,346.467999917,97,"['return']","[1.1121635010000546]",NA,NA,"",NA,991,"2022-11-25_14h45.18.478","test3","2022.2.4",59.709676505999,NA,1
"67","4.73222760742324","148.319327731092","328.319327731092","high","271.27419405611","maps/google_map_1.png","147.045133674983","objects/1/1_37.jpg","0.0","indoors","Cassette_Audio.jpg","old",0,42,42,42,0,0,0,0,NA,NA,"",NA,NA,NA,"",NA,NA,NA,"",NA,NA,NA,"",NA,350.504756083,347.843393875,347.843393875,347.843393875,347.843393875,347.843393875,"right",1.42637170899991,349.558350625,349.558350625,349.558350625,349.558350625,349.558350625,349.558350625,349.558350625,349.558350625,349.558350625,6,0.927971834000004,350.982182208,350.982182208,350.982182208,350.982182208,296.5,"['return']","[1.846654833999878]",NA,NA,"",NA,991,"2022-11-25_14h45.18.478","test3","2022.2.4",59.709676505999,NA,1
"69","None","None","None","None","None","maps/google_map_1.png","None","objects/2/2_40.jpg","None","indoors","Toy_Boat.jpg","new",0,43,43,43,NA,NA,NA,NA,NA,NA,"",NA,NA,NA,"",NA,NA,NA,"",NA,NA,NA,"",NA,356.754882542,353.088312792,353.088312792,353.088312792,353.088312792,353.088312792,"left",1.63118491700004,355.007146417,355.007146417,355.007146417,355.007146417,355.007146417,355.007146417,355.007146417,355.007146417,355.007146417,2,1.72015554199982,357.004596125,NA,NA,NA,NA,"","",NA,NA,"",NA,991,"2022-11-25_14h45.18.478","test3","2022.2.4",59.709676505999,NA,0
"70","4.9420248096043204","148.319327731092","328.319327731092","high","283.300785263942","maps/google_map_1.png","135.01854246715098","objects/1/1_1.jpg","0.0","indoors","Mat_Door.jpg","old",0,44,44,44,0,0,0,0,NA,NA,"",NA,NA,NA,"",NA,NA,NA,"",NA,NA,NA,"",NA,367.354673208,357.25635725,357.25635725,357.25635725,357.25635725,357.25635725,"left",3.15804220799998,360.707641417,360.707641417,360.707641417,360.707641417,360.707641417,360.707641417,360.707641417,360.707641417,360.707641417,3,6.61724920800009,367.835436167,367.835436167,367.835436167,367.835436167,341.5,"['return']","[4.253489542000011]",NA,NA,"",NA,991,"2022-11-25_14h45.18.478","test3","2022.2.4",59.709676505999,NA,0
"72","1.90628257275586","148.319327731092","328.319327731092","medium","109.277344935049","maps/google_map_1.png","50.9580172039569","objects/1/1_103.jpg","0.0","outdoors","Door_Green.jpg","old",0,45,45,45,0,0,0,0,NA,NA,"",NA,NA,NA,"",NA,NA,NA,"",NA,NA,NA,"",NA,375.754899125,372.357072125,372.357072125,372.357072125,372.357072125,372.357072125,"left",2.04780108400007,374.692700042,374.692700042,374.692700042,374.692700042,374.692700042,374.692700042,374.692700042,374.692700042,374.692700042,3,1.03234800100006,376.233627083,376.233627083,376.233627083,376.233627083,222.5,"['return']","[3.746396792000155]",NA,NA,"",NA,991,"2022-11-25_14h45.18.478","test3","2022.2.4",59.709676505999,NA,0
"74","2.7836651042047103","71.8991596638655","251.89915966386602","high","159.57315883976102","maps/google_map_1.png","177.673999175895","objects/1/1_47.jpg","0.0","outdoors","Caribou.jpg","old",0,46,46,46,0,0,0,0,NA,NA,"",NA,NA,NA,"",NA,NA,NA,"",NA,NA,NA,"",NA,383.772307042,380.240317083,380.240317083,380.240317083,380.240317083,380.240317083,"right",1.68771816700007,382.225425458,382.225425458,382.225425458,382.225425458,382.225425458,382.225425458,382.225425458,382.225425458,382.225425458,3,1.52909129199986,384.251894792,384.251894792,384.251894792,384.251894792,37,"['return']","[2.3456928750000543]",NA,NA,"",NA,991,"2022-11-25_14h45.18.478","test3","2022.2.4",59.709676505999,NA,1
"76","1.2067722618552401","148.319327731092","328.319327731092","low","69.1780277496632","maps/google_map_1.png","10.8587000185708","objects/1/1_24.jpg","0.0","indoors","Box_FirstAid.jpg","old",0,47,47,47,0,0,0,0,NA,NA,"",NA,NA,NA,"",NA,NA,NA,"",NA,NA,NA,"",NA,390.05495375,386.872556,386.872556,386.872556,386.872556,386.872556,"right",1.4806837509999,388.641514292,388.641514292,388.641514292,388.641514292,388.641514292,388.641514292,388.641514292,388.641514292,388.641514292,6,1.3955948749998,390.534105417,390.534105417,390.534105417,390.534105417,76,"['return']","[2.080175875000009]",NA,NA,"",NA,991,"2022-11-25_14h45.18.478","test3","2022.2.4",59.709676505999,NA,1
"78","0.48605298537194497","71.8991596638655","251.89915966386602","medium","27.862909989474502","maps/google_map_1.png","45.963750325609","objects/1/1_39.jpg","0.0","outdoors","SpiderWeb.jpg","old",0,48,48,48,0,0,0,0,NA,NA,"",NA,NA,NA,"",NA,NA,NA,"",NA,NA,NA,"",NA,395.655773417,392.8916055,392.8916055,392.8916055,392.8916055,392.8916055,"right",1.62540641699991,394.808876583,394.808876583,394.808876583,394.808876583,394.808876583,394.808876583,394.808876583,394.808876583,394.808876583,6,0.829006667000044,396.1342415,396.1342415,396.1342415,396.1342415,352,"['return']","[0.9270190009998487]",NA,NA,"",NA,991,"2022-11-25_14h45.18.478","test3","2022.2.4",59.709676505999,NA,1
"80","None","None","None","None","None","maps/google_map_1.png","None","objects/2/2_57.jpg","None","outdoors","Steeple.jpg","new",0,49,49,49,NA,NA,NA,NA,NA,NA,"",NA,NA,NA,"",NA,NA,NA,"",NA,NA,NA,"",NA,400.705239792,397.322877958,397.322877958,397.322877958,397.322877958,397.322877958,"left",1.44104800099979,399.058866333,399.058866333,399.058866333,399.058866333,399.058866333,399.058866333,399.058866333,399.058866333,399.058866333,3,1.6229606669998,400.955458208,NA,NA,NA,NA,"","",NA,NA,"",NA,991,"2022-11-25_14h45.18.478","test3","2022.2.4",59.709676505999,NA,0
"81","None","None","None","None","None","maps/google_map_1.png","None","objects/2/2_29.jpg","None","indoors","Tape_Scotch.jpg","new",0,50,50,50,NA,NA,NA,NA,NA,NA,"",NA,NA,NA,"",NA,NA,NA,"",NA,NA,NA,"",NA,403.171744917,401.206268167,401.206268167,401.206268167,401.206268167,401.206268167,"left",1.28865958299991,402.791477625,402.791477625,402.791477625,402.791477625,402.791477625,402.791477625,402.791477625,402.791477625,402.791477625,2,0.354502541999977,403.421904625,NA,NA,NA,NA,"","",NA,NA,"",NA,991,"2022-11-25_14h45.18.478","test3","2022.2.4",59.709676505999,NA,0
"82","2.1438934625023203","71.8991596638655","251.89915966386602","high","122.898351353636","maps/google_map_1.png","140.999191689771","objects/1/1_7.jpg","0.0","outdoors","Hottub.jpg","old",0,51,51,51,0,0,0,0,NA,NA,"",NA,NA,NA,"",NA,NA,NA,"",NA,NA,NA,"",NA,406.0720885,403.673165417,403.673165417,403.673165417,403.673165417,403.673165417,"right",1.25914725099994,405.225397667,405.225397667,405.225397667,405.225397667,405.225397667,405.225397667,405.225397667,405.225397667,405.225397667,6,0.827907791999792,406.551306208,406.551306208,406.551306208,406.551306208,60.5,"['return']","[1.4248931669998228]",NA,NA,"",NA,991,"2022-11-25_14h45.18.478","test3","2022.2.4",59.709676505999,NA,1
"84","2.96452941176471","58.3193277310925","139.773109243697","singletons","169.941176470588","maps/google_map_1.png","None","objects/1/1_94.jpg","0.0","indoors","Toy_BlocksLetter.jpg","old",0,52,52,52,0,0,0,0,NA,NA,"",NA,NA,NA,"",NA,NA,NA,"",NA,NA,NA,"",NA,412.03897725,408.239919417,408.239919417,408.239919417,408.239919417,408.239919417,"right",1.57896370900005,410.108579708,410.108579708,410.108579708,410.108579708,410.108579708,410.108579708,410.108579708,410.108579708,410.108579708,6,1.9028079169999,412.516845417,412.516845417,412.516845417,412.516845417,225,"['return']","[2.1011819169999626]",NA,NA,"",NA,991,"2022-11-25_14h45.18.478","test3","2022.2.4",59.709676505999,NA,1
"86","6.06383294252329","71.8991596638655","251.89915966386602","low","347.608257851653","maps/google_map_1.png","5.7090981877878795","objects/1/1_104.jpg","0.0","indoors","Pitcher.jpg","old",0,53,53,53,0,0,0,0,NA,NA,"",NA,NA,NA,"",NA,NA,NA,"",NA,NA,NA,"",NA,416.922050583,414.872040875,414.872040875,414.872040875,414.872040875,414.872040875,"right",1.1978300840002,416.360565125,416.360565125,416.360565125,416.360565125,416.360565125,416.360565125,416.360565125,416.360565125,416.360565125,6,0.531634709000059,417.397427208,417.397427208,417.397427208,417.397427208,355.5,"['return']","[2.5836986670000215]",NA,NA,"",NA,991,"2022-11-25_14h45.18.478","test3","2022.2.4",59.709676505999,NA,1
"88","3.74303809754345","148.319327731092","328.319327731092","high","214.569062916503","maps/google_map_1.png","156.249735185411","objects/1/1_16.jpg","0.0","indoors","Mask_Ski.jpg","old",0,54,54,54,0,0,0,0,NA,NA,"",NA,NA,NA,"",NA,NA,NA,"",NA,NA,NA,"",NA,422.888941083,420.239840792,420.239840792,420.239840792,420.239840792,420.239840792,"right",1.57398029199987,422.109521292,422.109521292,422.109521292,422.109521292,422.109521292,422.109521292,422.109521292,422.109521292,422.109521292,6,0.756818333999831,423.370086667,423.370086667,423.370086667,423.370086667,95.5,"['return']","[1.3601750420001508]",NA,NA,"",NA,991,"2022-11-25_14h45.18.478","test3","2022.2.4",59.709676505999,NA,1
"90","None","None","None","None","None","maps/google_map_1.png","None","objects/2/2_110.jpg","None","indoors","Flute_Wooden.jpg","new",0,55,55,55,NA,NA,NA,NA,NA,NA,"",NA,NA,NA,"",NA,NA,NA,"",NA,NA,NA,"",NA,427.172589958,424.989910583,424.989910583,424.989910583,424.989910583,424.989910583,"left",1.18263429199999,426.458339042,426.458339042,426.458339042,426.458339042,426.458339042,426.458339042,426.458339042,426.458339042,426.458339042,2,0.695516958999974,427.422780917,NA,NA,NA,NA,"","",NA,NA,"",NA,991,"2022-11-25_14h45.18.478","test3","2022.2.4",59.709676505999,NA,0
"91","5.99860062387725","71.8991596638655","251.89915966386602","low","343.86882557258104","maps/google_map_1.png","1.96966590871582","objects/1/1_13.jpg","0.0","indoors","Bagel.jpg","old",0,56,56,56,0,0,0,0,NA,NA,"",NA,NA,NA,"",NA,NA,NA,"",NA,NA,NA,"",NA,429.539219708,427.674073458,427.674073458,427.674073458,427.674073458,427.674073458,"right",1.02514466699984,428.992437542,428.992437542,428.992437542,428.992437542,428.992437542,428.992437542,428.992437542,428.992437542,428.992437542,5,0.525576708000131,430.018021167,430.018021167,430.018021167,430.018021167,330.5,"['return']","[2.324080084000002]",NA,NA,"",NA,991,"2022-11-25_14h45.18.478","test3","2022.2.4",59.709676505999,NA,1
"93","None","None","None","None","None","maps/google_map_1.png","None","objects/2/2_136.jpg","None","outdoors","WaterWell.jpg","new",0,57,57,57,NA,NA,NA,NA,NA,NA,"",NA,NA,NA,"",NA,NA,NA,"",NA,NA,NA,"",NA,434.905705708,432.607328375,432.607328375,432.607328375,432.607328375,432.607328375,"left",1.5713979169999,434.476666042,434.476666042,434.476666042,434.476666042,434.476666042,434.476666042,434.476666042,434.476666042,434.476666042,2,0.3970780840001,435.155535125,NA,NA,NA,NA,"","",NA,NA,"",NA,991,"2022-11-25_14h45.18.478","test3","2022.2.4",59.709676505999,NA,0
"94","None","None","None","None","None","maps/google_map_1.png","None","objects/2/2_43.jpg","None","outdoors","Butterfly.jpg","new",0,58,58,58,NA,NA,NA,NA,NA,NA,"",NA,NA,NA,"",NA,NA,NA,"",NA,NA,NA,"",NA,437.389324958,435.407873875,435.407873875,435.407873875,435.407873875,435.407873875,"left",1.09984770900007,436.808937208,436.808937208,436.808937208,436.808937208,436.808937208,436.808937208,436.808937208,436.808937208,436.808937208,4,0.557209584000134,437.639317792,NA,NA,NA,NA,"","",NA,NA,"",NA,991,"2022-11-25_14h45.18.478","test3","2022.2.4",59.709676505999,NA,0
"95","1.49098692810458","161.89915966386602","172.95798319327702","singletons","85.47058823529409","maps/google_map_1.png","None","objects/1/1_40.jpg","0.0","outdoors","Dog_SaintBernard.jpg","old",0,59,59,59,0,0,0,0,NA,NA,"",NA,NA,NA,"",NA,NA,NA,"",NA,NA,NA,"",NA,440.055758167,437.89122075,437.89122075,437.89122075,437.89122075,437.89122075,"right",1.29460979199996,439.475765625,439.475765625,439.475765625,439.475765625,439.475765625,439.475765625,439.475765625,439.475765625,439.475765625,6,0.555505749999952,440.537334,440.537334,440.537334,440.537334,32.5,"['return']","[4.691996625000115]",NA,NA,"",NA,991,"2022-11-25_14h45.18.478","test3","2022.2.4",59.709676505999,NA,1
"97","2.4140503084802","148.319327731092","328.319327731092","medium","138.385049530712","maps/google_map_1.png","80.06572179961951","objects/1/1_46.jpg","0.0","outdoors","SiloGrain.jpg","old",0,60,60,60,0,0,0,0,NA,NA,"",NA,NA,NA,"",NA,NA,NA,"",NA,NA,NA,"",NA,448.6229585,445.490552042,445.490552042,445.490552042,445.490552042,445.490552042,"right",1.51420975100007,447.292305042,447.292305042,447.292305042,447.292305042,447.292305042,447.292305042,447.292305042,447.292305042,447.292305042,5,1.31221037600005,449.103341625,449.103341625,449.103341625,449.103341625,186.5,"['return']","[3.1149182089999385]",NA,NA,"",NA,991,"2022-11-25_14h45.18.478","test3","2022.2.4",59.709676505999,NA,1
"99","None","None","None","None","None","maps/google_map_1.png","None","objects/2/2_16.jpg","None","indoors","Hockey_Puck.jpg","new",0,61,61,61,NA,NA,NA,NA,NA,NA,"",NA,NA,NA,"",NA,NA,NA,"",NA,NA,NA,"",NA,455.405962667,452.490377708,452.490377708,452.490377708,452.490377708,452.490377708,"left",2.2185082499999,455.009228125,455.009228125,455.009228125,455.009228125,455.009228125,455.009228125,455.009228125,455.009228125,455.009228125,3,0.365546375999998,455.656732,NA,NA,NA,NA,"","",NA,NA,"",NA,991,"2022-11-25_14h45.18.478","test3","2022.2.4",59.709676505999,NA,0
"100","5.477868705184551","71.8991596638655","251.89915966386602","low","314.017951252617","maps/google_map_1.png","27.881208411248103","objects/1/1_128.jpg","0.0","outdoors","DogHouse.jpg","old",0,62,62,62,0,0,0,0,NA,NA,"",NA,NA,NA,"",NA,NA,NA,"",NA,NA,NA,"",NA,458.406806542,455.907919958,455.907919958,455.907919958,455.907919958,455.907919958,"right",1.526022334,457.725898083,457.725898083,457.725898083,457.725898083,457.725898083,457.725898083,457.725898083,457.725898083,457.725898083,6,0.662162666999961,458.886114667,458.886114667,458.886114667,458.886114667,64,"['return']","[1.5178090000000566]",NA,NA,"",NA,991,"2022-11-25_14h45.18.478","test3","2022.2.4",59.709676505999,NA,1
"102","None","None","None","None","None","maps/google_map_1.png","None","objects/2/2_116.jpg","None","outdoors","House_Rural.jpg","new",0,63,63,63,NA,NA,NA,NA,NA,NA,"",NA,NA,NA,"",NA,NA,NA,"",NA,NA,NA,"",NA,463.323521792,460.674352917,460.674352917,460.674352917,460.674352917,460.674352917,"left",1.63682824999989,462.6102105,462.6102105,462.6102105,462.6102105,462.6102105,462.6102105,462.6102105,462.6102105,462.6102105,2,0.681600292000098,463.573183542,NA,NA,NA,NA,"","",NA,NA,"",NA,991,"2022-11-25_14h45.18.478","test3","2022.2.4",59.709676505999,NA,0
"103","3.1515995895619704","71.8991596638655","251.89915966386602","high","180.664944624571","maps/google_map_1.png","161.23421503929399","objects/1/1_72.jpg","0.0","indoors","Hat_Party.jpg","old",0,64,64,64,0,0,0,0,NA,NA,"",NA,NA,NA,"",NA,NA,NA,"",NA,NA,NA,"",NA,466.689726125,463.824388292,463.824388292,463.824388292,463.824388292,463.824388292,"left",2.25128437599994,466.375362333,466.375362333,466.375362333,466.375362333,466.375362333,466.375362333,466.375362333,466.375362333,466.375362333,3,0.291332958999988,467.168894542,467.168894542,467.168894542,467.168894542,257.5,"['return']","[3.727393042000017]",NA,NA,"",NA,991,"2022-11-25_14h45.18.478","test3","2022.2.4",59.709676505999,NA,0
"105","1.0210732700788","148.319327731092","328.319327731092","low","58.532862615982","maps/google_map_1.png","0.213534884889627","objects/1/1_43.jpg","0.0","indoors","Printer.jpg","old",0,65,65,65,0,0,0,0,NA,NA,"",NA,NA,NA,"",NA,NA,NA,"",NA,NA,NA,"",NA,474.790457375,471.157108833,471.157108833,471.157108833,471.157108833,471.157108833,"left",2.8561504999999,474.30941075,474.30941075,474.30941075,474.30941075,474.30941075,474.30941075,474.30941075,474.30941075,474.30941075,2,0.462557749999974,475.266754625,475.266754625,475.266754625,475.266754625,30.5,"['return']","[1.8403393339998502]",NA,NA,"",NA,991,"2022-11-25_14h45.18.478","test3","2022.2.4",59.709676505999,NA,0
"107","0.9304638738147909","148.319327731092","328.319327731092","low","53.3386934033957","maps/google_map_1.png","4.98063432769676","objects/1/1_141.jpg","0.0","outdoors","Caterpillar.jpg","old",0,66,66,66,0,0,0,0,NA,NA,"",NA,NA,NA,"",NA,NA,NA,"",NA,NA,NA,"",NA,480.240212958,477.374424917,477.374424917,477.374424917,477.374424917,477.374424917,"right",1.34361924999996,479.008726458,479.008726458,479.008726458,479.008726458,479.008726458,479.008726458,479.008726458,479.008726458,479.008726458,5,1.20222370799991,480.718808333,480.718808333,480.718808333,480.718808333,31,"['return']","[3.252045500999998]",NA,NA,"",NA,991,"2022-11-25_14h45.18.478","test3","2022.2.4",59.709676505999,NA,1
"109","None","None","None","None","None","maps/google_map_1.png","None","objects/2/2_86.jpg","None","outdoors","GoldNugget.jpg","new",0,67,67,67,NA,NA,NA,NA,NA,NA,"",NA,NA,NA,"",NA,NA,NA,"",NA,NA,NA,"",NA,487.556852417,484.243651917,484.243651917,484.243651917,484.243651917,484.243651917,"left",1.24613495899996,485.777672125,485.777672125,485.777672125,485.777672125,485.777672125,485.777672125,485.777672125,485.777672125,485.777672125,3,1.75354558299989,487.806616958,NA,NA,NA,NA,"","",NA,NA,"",NA,991,"2022-11-25_14h45.18.478","test3","2022.2.4",59.709676505999,NA,0
"110","None","None","None","None","None","maps/google_map_1.png","None","objects/2/2_19.jpg","None","outdoors","Goat.jpg","new",0,68,68,68,NA,NA,NA,NA,NA,NA,"",NA,NA,NA,"",NA,NA,NA,"",NA,NA,NA,"",NA,491.107145,488.057862417,488.057862417,488.057862417,488.057862417,488.057862417,"left",1.38994058299988,489.743233125,489.743233125,489.743233125,489.743233125,489.743233125,489.743233125,489.743233125,489.743233125,489.743233125,1,1.34130791699988,491.356779292,NA,NA,NA,NA,"","",NA,NA,"",NA,991,"2022-11-25_14h45.18.478","test3","2022.2.4",59.709676505999,NA,0
"111","3.20556994268232","148.319327731092","328.319327731092","medium","183.75878652319","maps/google_map_1.png","125.43945879209801","objects/1/1_62.jpg","0.0","outdoors","Seashell_AlternateTellin.jpg","old",0,69,69,69,0,0,0,0,NA,NA,"",NA,NA,NA,"",NA,NA,NA,"",NA,NA,NA,"",NA,493.990326042,491.608085292,491.608085292,491.608085292,491.608085292,491.608085292,"left",0.769465958999831,492.676040458,492.676040458,492.676040458,492.676040458,492.676040458,492.676040458,492.676040458,492.676040458,492.676040458,3,1.28130208299979,494.470424583,494.470424583,494.470424583,494.470424583,19,"['return']","[1.7164180420001003]",NA,NA,"",NA,991,"2022-11-25_14h45.18.478","test3","2022.2.4",59.709676505999,NA,0
"113","None","None","None","None","None","maps/google_map_1.png","None","objects/2/2_35.jpg","None","indoors","Hotdog_Weiner.jpg","new",0,70,70,70,NA,NA,NA,NA,NA,NA,"",NA,NA,NA,"",NA,NA,NA,"",NA,NA,NA,"",NA,498.858161708,496.457797708,496.457797708,496.457797708,496.457797708,496.457797708,"left",1.46441508300006,498.208836708,498.208836708,498.208836708,498.208836708,498.208836708,498.208836708,498.208836708,498.208836708,498.208836708,2,0.624527083999851,498.208836708,NA,NA,NA,NA,"","",NA,NA,"",NA,991,"2022-11-25_14h45.18.478","test3","2022.2.4",59.709676505999,NA,0
"114","None","None","None","None","None","maps/google_map_1.png","None","objects/2/2_88.jpg","None","indoors","Puzzle_Piece.jpg","new",0,71,71,71,NA,NA,NA,NA,NA,NA,"",NA,NA,NA,"",NA,NA,NA,"",NA,NA,NA,"",NA,500.923404167,499.374641917,499.374641917,499.374641917,499.374641917,499.374641917,"left",0.981730916999936,500.642995542,500.642995542,500.642995542,500.642995542,500.642995542,500.642995542,500.642995542,500.642995542,500.642995542,2,0.249151417000007,501.173548667,NA,NA,NA,NA,"","",NA,NA,"",NA,991,"2022-11-25_14h45.18.478","test3","2022.2.4",59.709676505999,NA,0
"115","None","None","None","None","None","maps/google_map_1.png","None","objects/2/2_94.jpg","None","outdoors","Playground.jpg","new",0,72,72,72,NA,NA,NA,NA,NA,NA,"",NA,NA,NA,"",NA,NA,NA,"",NA,NA,NA,"",NA,504.34038775,501.424971042,501.424971042,501.424971042,501.424971042,501.424971042,"left",2.28929200100004,504.010169917,504.010169917,504.010169917,504.010169917,504.010169917,504.010169917,504.010169917,504.010169917,504.010169917,2,0.29895050000016,504.590224167,NA,NA,NA,NA,"","",NA,NA,"",NA,991,"2022-11-25_14h45.18.478","test3","2022.2.4",59.709676505999,NA,0
"116","None","None","None","None","None","maps/google_map_1.png","None","objects/2/2_6.jpg","None","outdoors","Dragonfly.jpg","new",0,73,73,73,NA,NA,NA,NA,NA,NA,"",NA,NA,NA,"",NA,NA,NA,"",NA,NA,NA,"",NA,506.440358708,504.841565417,504.841565417,504.841565417,504.841565417,504.841565417,"left",0.760683459000006,505.892683667,505.892683667,505.892683667,505.892683667,505.892683667,505.892683667,505.892683667,505.892683667,505.892683667,2,0.518371167000055,506.690381167,NA,NA,NA,NA,"","",NA,NA,"",NA,991,"2022-11-25_14h45.18.478","test3","2022.2.4",59.709676505999,NA,0
"117","None","None","None","None","None","maps/google_map_1.png","None","objects/2/2_47.jpg","None","indoors","Handbag.jpg","new",0,74,74,74,NA,NA,NA,NA,NA,NA,"",NA,NA,NA,"",NA,NA,NA,"",NA,NA,NA,"",NA,508.473719417,506.942771417,506.942771417,506.942771417,506.942771417,506.942771417,"left",0.858695832999842,508.093919042,508.093919042,508.093919042,508.093919042,508.093919042,508.093919042,508.093919042,508.093919042,508.093919042,1,0.362076916999854,508.723957917,NA,NA,NA,NA,"","",NA,NA,"",NA,991,"2022-11-25_14h45.18.478","test3","2022.2.4",59.709676505999,NA,0
"118","None","None","None","None","None","maps/google_map_1.png","None","objects/2/2_143.jpg","None","indoors","Heater_ElectricPortable.jpg","new",0,75,75,75,NA,NA,NA,NA,NA,NA,"",NA,NA,NA,"",NA,NA,NA,"",NA,NA,NA,"",NA,510.807451375,508.974908292,508.974908292,508.974908292,508.974908292,508.974908292,"left",1.18798675000005,510.459979042,510.459979042,510.459979042,510.459979042,510.459979042,510.459979042,510.459979042,510.459979042,510.459979042,2,0.31660245899991,511.057603625,NA,NA,NA,NA,"","",NA,NA,"",NA,991,"2022-11-25_14h45.18.478","test3","2022.2.4",59.709676505999,NA,0
"119","None","None","None","None","None","maps/google_map_1.png","None","objects/2/2_44.jpg","None","outdoors","Bicycle_Kids.jpg","new",0,76,76,76,NA,NA,NA,NA,NA,NA,"",NA,NA,NA,"",NA,NA,NA,"",NA,NA,NA,"",NA,512.840523708,511.30903675,511.30903675,511.30903675,511.30903675,511.30903675,"left",0.891050249999921,512.494175583,512.494175583,512.494175583,512.494175583,512.494175583,512.494175583,512.494175583,512.494175583,512.494175583,2,0.326390041999844,513.090635042,NA,NA,NA,NA,"","",NA,NA,"",NA,991,"2022-11-25_14h45.18.478","test3","2022.2.4",59.709676505999,NA,0
"120","5.59613573700786","71.8991596638655","251.89915966386602","low","320.797590019559","maps/google_map_1.png","21.1015696443065","objects/1/1_48.jpg","0.0","outdoors","Toy_Lizard.jpg","old",0,77,77,77,0,0,0,0,NA,NA,"",NA,NA,NA,"",NA,NA,NA,"",NA,NA,NA,"",NA,515.957239792,513.341577458,513.341577458,513.341577458,513.341577458,513.341577458,"right",1.1874153760001,514.826457375,514.826457375,514.826457375,514.826457375,514.826457375,514.826457375,514.826457375,514.826457375,514.826457375,4,1.10620979199996,516.437015,516.437015,516.437015,516.437015,20.5,"['return']","[2.287768291999896]",NA,NA,"",NA,991,"2022-11-25_14h45.18.478","test3","2022.2.4",59.709676505999,NA,1
"122","None","None","None","None","None","maps/google_map_1.png","None","objects/2/2_46.jpg","None","outdoors","PlayerFootball.jpg","new",0,78,78,78,NA,NA,NA,NA,NA,NA,"",NA,NA,NA,"",NA,NA,NA,"",NA,NA,NA,"",NA,521.207931583,518.991094833,518.991094833,518.991094833,518.991094833,518.991094833,"left",1.13184712500004,520.409518708,520.409518708,520.409518708,520.409518708,520.409518708,520.409518708,520.409518708,520.409518708,520.409518708,1,0.768709125999862,521.4579195,NA,NA,NA,NA,"","",NA,NA,"",NA,991,"2022-11-25_14h45.18.478","test3","2022.2.4",59.709676505999,NA,0
"123","5.84035167694754","71.8991596638655","251.89915966386602","low","334.797229888712","maps/google_map_1.png","7.10192977515327","objects/1/1_106.jpg","0.0","indoors","PotatoMasher_Grate.jpg","old",0,79,79,79,0,0,0,0,NA,NA,"",NA,NA,NA,"",NA,NA,NA,"",NA,NA,NA,"",NA,523.657533667,521.708046875,521.708046875,521.708046875,521.708046875,521.708046875,"right",0.960003583999992,522.960057625,522.960057625,522.960057625,522.960057625,522.960057625,522.960057625,522.960057625,522.960057625,522.960057625,5,0.666629541999896,524.139570125,524.139570125,524.139570125,524.139570125,297,"['return']","[4.275309999999877]",NA,NA,"",NA,991,"2022-11-25_14h45.18.478","test3","2022.2.4",59.709676505999,NA,1
"125","1.4472400673955","148.319327731092","328.319327731092","low","82.9628064112068","maps/google_map_1.png","24.643478680114303","objects/1/1_97.jpg","0.0","indoors","LetterMail.jpg","old",0,80,80,80,0,0,0,0,NA,NA,"",NA,NA,NA,"",NA,NA,NA,"",NA,NA,NA,"",NA,530.72411475,528.674268583,528.674268583,528.674268583,528.674268583,528.674268583,"right",1.27170045900004,530.242591042,530.242591042,530.242591042,530.242591042,530.242591042,530.242591042,530.242591042,530.242591042,530.242591042,6,0.460143041999913,531.203718125,531.203718125,531.203718125,531.203718125,88.5,"['return']","[2.32838849999996]",NA,NA,"",NA,991,"2022-11-25_14h45.18.478","test3","2022.2.4",59.709676505999,NA,1
"127","None","None","None","None","None","maps/google_map_1.png","None","objects/2/2_8.jpg","None","outdoors","Sign_OneWay.jpg","new",0,81,81,81,NA,NA,NA,NA,NA,NA,"",NA,NA,NA,"",NA,NA,NA,"",NA,NA,NA,"",NA,536.707358542,533.79155075,533.79155075,533.79155075,533.79155075,533.79155075,"left",2.077415417,536.159423,536.159423,536.159423,536.159423,536.159423,536.159423,536.159423,536.159423,536.159423,2,0.524119584000005,536.957530792,NA,NA,NA,NA,"","",NA,NA,"",NA,991,"2022-11-25_14h45.18.478","test3","2022.2.4",59.709676505999,NA,0
"128","3.92754334511961","148.319327731092","328.319327731092","high","225.14579685399","maps/google_map_1.png","166.826469122898","objects/1/1_18.jpg","0.0","outdoors","Toy_SeeSaw.jpg","old",0,82,82,82,0,0,0,0,NA,NA,"",NA,NA,NA,"",NA,NA,NA,"",NA,NA,NA,"",NA,539.274406333,537.208645542,537.208645542,537.208645542,537.208645542,537.208645542,"right",1.036983459,538.543085958,538.543085958,538.543085958,538.543085958,538.543085958,538.543085958,538.543085958,538.543085958,538.543085958,5,0.704002876000118,539.752526917,539.752526917,539.752526917,539.752526917,11.5,"['return']","[2.670187626000029]",NA,NA,"",NA,991,"2022-11-25_14h45.18.478","test3","2022.2.4",59.709676505999,NA,1
"130","None","None","None","None","None","maps/google_map_1.png","None","objects/2/2_120.jpg","None","indoors","Briefcase_Silver.jpg","new",0,83,83,83,NA,NA,NA,NA,NA,NA,"",NA,NA,NA,"",NA,NA,NA,"",NA,NA,NA,"",NA,544.974159792,542.69206175,542.69206175,542.69206175,542.69206175,542.69206175,"left",1.41794791699988,544.4103665,544.4103665,544.4103665,544.4103665,544.4103665,544.4103665,544.4103665,544.4103665,544.4103665,2,0.531428958999982,545.224771292,NA,NA,NA,NA,"","",NA,NA,"",NA,991,"2022-11-25_14h45.18.478","test3","2022.2.4",59.709676505999,NA,0
"131","None","None","None","None","None","maps/google_map_1.png","None","objects/2/2_69.jpg","None","outdoors","Statue_Head.jpg","new",0,84,84,84,NA,NA,NA,NA,NA,NA,"",NA,NA,NA,"",NA,NA,NA,"",NA,NA,NA,"",NA,547.091003,545.475372625,545.475372625,545.475372625,545.475372625,545.475372625,"left",0.939601166999978,546.710441708,546.710441708,546.710441708,546.710441708,546.710441708,546.710441708,546.710441708,546.710441708,546.710441708,1,0.348344667000106,547.341026417,NA,NA,NA,NA,"","",NA,NA,"",NA,991,"2022-11-25_14h45.18.478","test3","2022.2.4",59.709676505999,NA,0
"132","5.93195336185991","71.8991596638655","251.89915966386602","low","340.048281890059","maps/google_map_1.png","1.85087777380689","objects/1/1_59.jpg","0.0","indoors","Candy_Toffee.jpg","old",0,85,85,85,0,0,0,0,NA,NA,"",NA,NA,NA,"",NA,NA,NA,"",NA,NA,NA,"",NA,549.441334167,547.591978292,547.591978292,547.591978292,547.591978292,547.591978292,"right",1.0046589169998,548.893542875,548.893542875,548.893542875,548.893542875,548.893542875,548.893542875,548.893542875,548.893542875,548.893542875,6,0.529154791999986,549.920189875,549.920189875,549.920189875,549.920189875,345,"['return']","[1.0959060420001379]",NA,NA,"",NA,991,"2022-11-25_14h45.18.478","test3","2022.2.4",59.709676505999,NA,1
"134","3.9269260434692597","148.319327731092","328.319327731092","high","225.110410135181","maps/google_map_1.png","166.791082404088","objects/1/1_91.jpg","0.0","indoors","Abacus.jpg","old",0,86,86,86,0,0,0,0,NA,NA,"",NA,NA,NA,"",NA,NA,NA,"",NA,NA,NA,"",NA,553.725236042,551.276888333,551.276888333,551.276888333,551.276888333,551.276888333,"right",1.51278308399981,553.07741425,553.07741425,553.07741425,553.07741425,553.07741425,553.07741425,553.07741425,553.07741425,553.07741425,5,0.629044874999977,554.199709167,554.199709167,554.199709167,554.199709167,224,"['return']","[3.2120151669997767]",NA,NA,"",NA,991,"2022-11-25_14h45.18.478","test3","2022.2.4",59.709676505999,NA,1
"136","None","None","None","None","None","maps/google_map_1.png","None","objects/2/2_89.jpg","None","outdoors","Bird_Duck.jpg","new",0,87,87,87,NA,NA,NA,NA,NA,NA,"",NA,NA,NA,"",NA,NA,NA,"",NA,NA,NA,"",NA,560.19208125,557.675539958,557.675539958,557.675539958,557.675539958,557.675539958,"left",1.63754345799987,559.610255167,559.610255167,559.610255167,559.610255167,559.610255167,559.610255167,559.610255167,559.610255167,559.610255167,2,0.555349250999939,560.441581625,NA,NA,NA,NA,"","",NA,NA,"",NA,991,"2022-11-25_14h45.18.478","test3","2022.2.4",59.709676505999,NA,0
"137","0.48747976771791396","71.8991596638655","251.89915966386602","low","27.944700060262605","maps/google_map_1.png","46.045540396397","objects/1/1_51.jpg","0.0","indoors","Toy_LambPlushie.jpg","old",0,88,88,88,0,0,0,0,NA,NA,"",NA,NA,NA,"",NA,NA,NA,"",NA,NA,NA,"",NA,562.741972042,560.692245167,560.692245167,560.692245167,560.692245167,560.692245167,"right",1.16801591699993,562.162463333,562.162463333,562.162463333,562.162463333,562.162463333,562.162463333,562.162463333,562.162463333,562.162463333,5,0.560900416999971,563.216845583,563.216845583,563.216845583,563.216845583,351,"['return']","[1.3314281249998885]",NA,NA,"",NA,991,"2022-11-25_14h45.18.478","test3","2022.2.4",59.709676505999,NA,1
"139","None","None","None","None","None","maps/google_map_1.png","None","objects/2/2_1.jpg","None","indoors","Sieve_SideView.jpg","new",0,89,89,89,NA,NA,NA,NA,NA,NA,"",NA,NA,NA,"",NA,NA,NA,"",NA,NA,NA,"",NA,567.358734125,564.809269292,564.809269292,564.809269292,564.809269292,564.809269292,"left",1.47803154200017,566.576216292,566.576216292,566.576216292,566.576216292,566.576216292,566.576216292,566.576216292,566.576216292,566.576216292,3,0.764031500999977,567.607805667,NA,NA,NA,NA,"","",NA,NA,"",NA,991,"2022-11-25_14h45.18.478","test3","2022.2.4",59.709676505999,NA,0
"140","3.14457938999197","148.319327731092","328.319327731092","medium","180.26251280208803","maps/google_map_1.png","121.943185070995","objects/1/1_44.jpg","0.0","outdoors","Camel_Dromedary.jpg","old",0,90,90,90,0,0,0,0,NA,NA,"",NA,NA,NA,"",NA,NA,NA,"",NA,NA,NA,"",NA,569.625099625,567.859211833,567.859211833,567.859211833,567.859211833,567.859211833,"right",0.999049583999863,569.145125542,569.145125542,569.145125542,569.145125542,569.145125542,569.145125542,569.145125542,569.145125542,569.145125542,6,0.449269667000067,570.103840208,570.103840208,570.103840208,570.103840208,190,"['return']","[1.9454528759998766]",NA,NA,"",NA,991,"2022-11-25_14h45.18.478","test3","2022.2.4",59.709676505999,NA,1
"142","None","None","None","None","None","maps/google_map_1.png","None","objects/2/2_68.jpg","None","indoors","KitchenTools.jpg","new",0,91,91,91,NA,NA,NA,NA,NA,NA,"",NA,NA,NA,"",NA,NA,NA,"",NA,NA,NA,"",NA,574.508519083,572.309299375,572.309299375,572.309299375,572.309299375,572.309299375,"left",1.36117216699984,573.961261792,573.961261792,573.961261792,573.961261792,573.961261792,573.961261792,573.961261792,573.961261792,573.961261792,2,0.526448334000065,574.75826075,NA,NA,NA,NA,"","",NA,NA,"",NA,991,"2022-11-25_14h45.18.478","test3","2022.2.4",59.709676505999,NA,0
"143","None","None","None","None","None","maps/google_map_1.png","None","objects/2/2_28.jpg","None","outdoors","LawnMower.jpg","new",0,92,92,92,NA,NA,NA,NA,NA,NA,"",NA,NA,NA,"",NA,NA,NA,"",NA,NA,NA,"",NA,576.692008542,575.009708125,575.009708125,575.009708125,575.009708125,575.009708125,"left",1.01460495799995,576.310685917,576.310685917,576.310685917,576.310685917,576.310685917,576.310685917,576.310685917,576.310685917,576.310685917,2,0.35283995899988,576.941849917,NA,NA,NA,NA,"","",NA,NA,"",NA,991,"2022-11-25_14h45.18.478","test3","2022.2.4",59.709676505999,NA,0
"144","None","None","None","None","None","maps/google_map_1.png","None","objects/2/2_101.jpg","None","outdoors","PoliceTape.jpg","new",0,93,93,93,NA,NA,NA,NA,NA,NA,"",NA,NA,NA,"",NA,NA,NA,"",NA,NA,NA,"",NA,578.492042333,577.192400292,577.192400292,577.192400292,577.192400292,577.192400292,"left",0.895434250999983,578.377633292,578.377633292,578.377633292,578.377633292,578.377633292,578.377633292,578.377633292,578.377633292,578.377633292,1,0.0831508759998769,578.74180825,NA,NA,NA,NA,"","",NA,NA,"",NA,991,"2022-11-25_14h45.18.478","test3","2022.2.4",59.709676505999,NA,0
"145","2.1151913542011003","71.8991596638655","251.89915966386602","high","121.25300756566799","maps/google_map_1.png","139.353847901802","objects/1/1_50.jpg","0.0","outdoors","GatedEntrance.jpg","old",0,94,94,94,0,0,0,0,NA,NA,"",NA,NA,NA,"",NA,NA,NA,"",NA,NA,NA,"",NA,581.191859,578.993190917,578.993190917,578.993190917,578.993190917,578.993190917,"right",1.04878066700019,580.3317115,580.3317115,580.3317115,580.3317115,580.3317115,580.3317115,580.3317115,580.3317115,580.3317115,4,0.832282499999906,581.671740583,581.671740583,581.671740583,581.671740583,88.5,"['return']","[2.0041133749999744]",NA,NA,"",NA,991,"2022-11-25_14h45.18.478","test3","2022.2.4",59.709676505999,NA,1
"147","1.10918743929277","148.319327731092","328.319327731092","low","63.5839933352542","maps/google_map_1.png","5.26466560416175","objects/1/1_17.jpg","0.0","indoors","WashingMachine.jpg","old",0,95,95,95,0,0,0,0,NA,NA,"",NA,NA,NA,"",NA,NA,NA,"",NA,NA,NA,"",NA,587.174979833,583.942039958,583.942039958,583.942039958,583.942039958,583.942039958,"right",1.95457495900007,586.21049625,586.21049625,586.21049625,586.21049625,586.21049625,586.21049625,586.21049625,586.21049625,586.21049625,5,0.935375375000035,587.652281583,587.652281583,587.652281583,587.652281583,9.5,"['return']","[1.4359422920000497]",NA,NA,"",NA,991,"2022-11-25_14h45.18.478","test3","2022.2.4",59.709676505999,NA,1
"149","None","None","None","None","None","maps/google_map_1.png","None","objects/2/2_58.jpg","None","indoors","Fryingpan.jpg","new",0,96,96,96,NA,NA,NA,NA,NA,NA,"",NA,NA,NA,"",NA,NA,NA,"",NA,NA,NA,"",NA,591.45917425,589.359461375,589.359461375,589.359461375,589.359461375,589.359461375,"left",1.09050608399991,590.744601,590.744601,590.744601,590.744601,590.744601,590.744601,590.744601,590.744601,590.744601,3,0.695569584000054,591.708901625,NA,NA,NA,NA,"","",NA,NA,"",NA,991,"2022-11-25_14h45.18.478","test3","2022.2.4",59.709676505999,NA,0
"150","None","None","None","None","None","maps/google_map_1.png","None","objects/2/2_22.jpg","None","outdoors","Hippopotamus.jpg","new",0,97,97,97,NA,NA,NA,NA,NA,NA,"",NA,NA,NA,"",NA,NA,NA,"",NA,NA,NA,"",NA,593.742334875,591.959633958,591.959633958,591.959633958,591.959633958,591.959633958,"left",1.17748462499992,593.428111333,593.428111333,593.428111333,593.428111333,593.428111333,593.428111333,593.428111333,593.428111333,593.428111333,2,0.296146499999963,593.99234025,NA,NA,NA,NA,"","",NA,NA,"",NA,991,"2022-11-25_14h45.18.478","test3","2022.2.4",59.709676505999,NA,0
"151","None","None","None","None","None","maps/google_map_1.png","None","objects/2/2_45.jpg","None","indoors","Crib_Basket.jpg","new",0,98,98,98,NA,NA,NA,NA,NA,NA,"",NA,NA,NA,"",NA,NA,NA,"",NA,NA,NA,"",NA,596.492226167,594.244651375,594.244651375,594.244651375,594.244651375,594.244651375,"left",0.879238332999989,595.411662833,595.411662833,595.411662833,595.411662833,595.411662833,595.411662833,595.411662833,595.411662833,595.411662833,2,1.05395779200001,596.742242667,NA,NA,NA,NA,"","",NA,NA,"",NA,991,"2022-11-25_14h45.18.478","test3","2022.2.4",59.709676505999,NA,0
"152","0.789928852218592","71.8991596638655","251.89915966386602","medium","45.282545668581704","maps/google_map_1.png","63.38338600471621","objects/1/1_36.jpg","0.0","outdoors","Hay.jpg","old",0,99,99,99,0,0,0,0,NA,NA,"",NA,NA,NA,"",NA,NA,NA,"",NA,NA,NA,"",NA,598.908861667,596.994737417,596.994737417,596.994737417,596.994737417,596.994737417,"right",1.05449108300002,598.346979375,598.346979375,598.346979375,598.346979375,598.346979375,598.346979375,598.346979375,598.346979375,598.346979375,5,0.532348333999948,599.383628208,599.383628208,599.383628208,599.383628208,10.5,"['return']","[1.416408499999875]",NA,NA,"",NA,991,"2022-11-25_14h45.18.478","test3","2022.2.4",59.709676505999,NA,1
"154","None","None","None","None","None","maps/google_map_1.png","None","objects/2/2_72.jpg","None","outdoors","PirateFlag.jpg","new",0,100,100,100,NA,NA,NA,NA,NA,NA,"",NA,NA,NA,"",NA,NA,NA,"",NA,NA,NA,"",NA,603.392529583,601.05970375,601.05970375,601.05970375,601.05970375,601.05970375,"left",0.877311749999876,602.228117917,602.228117917,602.228117917,602.228117917,602.228117917,602.228117917,602.228117917,602.228117917,602.228117917,1,1.14592654199998,603.642209375,NA,NA,NA,NA,"","",NA,NA,"",NA,991,"2022-11-25_14h45.18.478","test3","2022.2.4",59.709676505999,NA,0
"155","None","None","None","None","None","maps/google_map_1.png","None","objects/2/2_70.jpg","None","outdoors","Paratrooper.jpg","new",0,101,101,101,NA,NA,NA,NA,NA,NA,"",NA,NA,NA,"",NA,NA,NA,"",NA,NA,NA,"",NA,606.041954583,603.892998667,603.892998667,603.892998667,603.892998667,603.892998667,"left",1.49875474999988,605.677809083,605.677809083,605.677809083,605.677809083,605.677809083,605.677809083,605.677809083,605.677809083,605.677809083,1,0.336048291999873,606.291996333,NA,NA,NA,NA,"","",NA,NA,"",NA,991,"2022-11-25_14h45.18.478","test3","2022.2.4",59.709676505999,NA,0
"156","None","None","None","None","None","maps/google_map_1.png","None","objects/2/2_91.jpg","None","outdoors","PortaPotty.jpg","new",0,102,102,102,NA,NA,NA,NA,NA,NA,"",NA,NA,NA,"",NA,NA,NA,"",NA,NA,NA,"",NA,608.3425965,606.543328125,606.543328125,606.543328125,606.543328125,606.543328125,"left",1.09857104200012,607.928915458,607.928915458,607.928915458,607.928915458,607.928915458,607.928915458,607.928915458,607.928915458,607.928915458,2,0.396575791999908,608.591945667,NA,NA,NA,NA,"","",NA,NA,"",NA,991,"2022-11-25_14h45.18.478","test3","2022.2.4",59.709676505999,NA,0
"157","5.84664382643996","71.8991596638655","251.89915966386602","low","335.157926356431","maps/google_map_1.png","6.741233307434911","objects/1/1_100.jpg","0.0","indoors","Chair_BeanBag.jpg","old",0,103,103,103,0,0,0,0,NA,NA,"",NA,NA,NA,"",NA,NA,NA,"",NA,NA,NA,"",NA,610.526024333,608.843643958,608.843643958,608.843643958,608.843643958,608.843643958,"right",0.793221708000033,609.930201833,609.930201833,609.930201833,609.930201833,609.930201833,609.930201833,609.930201833,609.930201833,609.930201833,6,0.577493166999943,611.000532083,611.000532083,611.000532083,611.000532083,18,"['return']","[2.4014736670000048]",NA,NA,"",NA,991,"2022-11-25_14h45.18.478","test3","2022.2.4",59.709676505999,NA,1
"159","3.24686821143275","71.8991596638655","251.89915966386602","high","186.12620320315102","maps/google_map_1.png","155.772956460714","objects/1/1_137.jpg","0.0","indoors","CigarCase.jpg","old",0,104,104,104,0,0,0,0,NA,NA,"",NA,NA,NA,"",NA,NA,NA,"",NA,NA,NA,"",NA,617.792288583,613.676689667,613.676689667,613.676689667,613.676689667,613.676689667,"right",2.61871041699999,616.594861708,616.594861708,616.594861708,616.594861708,616.594861708,616.594861708,616.594861708,616.594861708,616.594861708,4,1.173003042,618.268321917,618.268321917,618.268321917,618.268321917,134.5,"['return']","[1.5062602919998653]",NA,NA,"",NA,991,"2022-11-25_14h45.18.478","test3","2022.2.4",59.709676505999,NA,1
"161","None","None","None","None","None","maps/google_map_1.png","None","objects/2/2_5.jpg","None","indoors","Glass_Beer.jpg","new",0,105,105,105,NA,NA,NA,NA,NA,NA,"",NA,NA,NA,"",NA,NA,NA,"",NA,NA,NA,"",NA,622.45966175,620.042924958,620.042924958,620.042924958,620.042924958,620.042924958,"left",1.41448579200016,621.744450708,621.744450708,621.744450708,621.744450708,621.744450708,621.744450708,621.744450708,621.744450708,621.744450708,2,0.693141999999966,622.709413667,NA,NA,NA,NA,"","",NA,NA,"",NA,991,"2022-11-25_14h45.18.478","test3","2022.2.4",59.709676505999,NA,0
"162","2.3257941663896604","148.319327731092","328.319327731092","medium","133.325780238898","maps/google_map_1.png","75.0064525078051","objects/1/1_23.jpg","0.0","indoors","HairScrunchie.jpg","old",0,106,106,106,0,0,0,0,NA,NA,"",NA,NA,NA,"",NA,NA,NA,"",NA,NA,NA,"",NA,625.159007167,622.961960667,622.961960667,622.961960667,622.961960667,622.961960667,"right",0.961848374999931,624.213503958,624.213503958,624.213503958,624.213503958,624.213503958,624.213503958,624.213503958,624.213503958,624.213503958,5,0.913572791999854,625.637138667,625.637138667,625.637138667,625.637138667,285.5,"['return']","[1.1078432080001903]",NA,NA,"",NA,991,"2022-11-25_14h45.18.478","test3","2022.2.4",59.709676505999,NA,1
"164","None","None","None","None","None","maps/google_map_1.png","None","objects/2/2_82.jpg","None","indoors","Drum_Conga.jpg","new",0,107,107,107,NA,NA,NA,NA,NA,NA,"",NA,NA,NA,"",NA,NA,NA,"",NA,NA,NA,"",NA,629.359837417,627.01047675,627.01047675,627.01047675,627.01047675,627.01047675,"left",1.13150433399994,628.428433292,628.428433292,628.428433292,628.428433292,628.428433292,628.428433292,628.428433292,628.428433292,628.428433292,3,0.913318541999956,629.60940475,NA,NA,NA,NA,"","",NA,NA,"",NA,991,"2022-11-25_14h45.18.478","test3","2022.2.4",59.709676505999,NA,0
"165","0.691657706209344","148.319327731092","328.319327731092","low","39.6491678718732","maps/google_map_1.png","18.670159859219197","objects/1/1_26.jpg","0.0","indoors","JuiceBox.jpg","old",0,108,108,108,0,0,0,0,NA,NA,"",NA,NA,NA,"",NA,NA,NA,"",NA,NA,NA,"",NA,631.675976583,629.860435125,629.860435125,629.860435125,629.860435125,629.860435125,"left",0.916963792000047,631.078738375,631.078738375,631.078738375,631.078738375,631.078738375,631.078738375,631.078738375,631.078738375,631.078738375,2,0.576492792000067,632.155579875,632.155579875,632.155579875,632.155579875,4.5,"['return']","[2.3911515830001235]",NA,NA,"",NA,991,"2022-11-25_14h45.18.478","test3","2022.2.4",59.709676505999,NA,0
"167","2.23671523458584","148.319327731092","328.319327731092","medium","128.219344657787","maps/google_map_1.png","69.9000169266947","objects/1/1_78.jpg","0.0","indoors","Blueprints.jpg","old",0,109,109,109,0,0,0,0,NA,NA,"",NA,NA,NA,"",NA,NA,NA,"",NA,NA,NA,"",NA,640.575830167,634.810309375,634.810309375,634.810309375,634.810309375,634.810309375,"right",1.72208912500002,636.827788542,636.827788542,636.827788542,636.827788542,636.827788542,636.827788542,636.827788542,636.827788542,636.827788542,6,3.72326416699991,641.056409583,641.056409583,641.056409583,641.056409583,214.5,"['return']","[2.1426741670001093]",NA,NA,"",NA,991,"2022-11-25_14h45.18.478","test3","2022.2.4",59.709676505999,NA,1
"169","None","None","None","None","None","maps/google_map_1.png","None","objects/2/2_102.jpg","None","outdoors","Golf_Club.jpg","new",0,110,110,110,NA,NA,NA,NA,NA,NA,"",NA,NA,NA,"",NA,NA,NA,"",NA,NA,NA,"",NA,646.093422583,643.459620792,643.459620792,643.459620792,643.459620792,643.459620792,"left",1.22485208399996,644.977044208,644.977044208,644.977044208,644.977044208,644.977044208,644.977044208,644.977044208,644.977044208,644.977044208,3,1.09557445899998,646.342953,NA,NA,NA,NA,"","",NA,NA,"",NA,991,"2022-11-25_14h45.18.478","test3","2022.2.4",59.709676505999,NA,0
"170","None","None","None","None","None","maps/google_map_1.png","None","objects/2/2_36.jpg","None","indoors","Blanket.jpg","new",0,111,111,111,NA,NA,NA,NA,NA,NA,"",NA,NA,NA,"",NA,NA,NA,"",NA,NA,NA,"",NA,649.593310125,646.5941665,646.5941665,646.5941665,646.5941665,646.5941665,"left",1.35185358299998,648.247245417,648.247245417,648.247245417,648.247245417,648.247245417,648.247245417,648.247245417,648.247245417,648.247245417,3,1.32667083300009,649.842757083,NA,NA,NA,NA,"","",NA,NA,"",NA,991,"2022-11-25_14h45.18.478","test3","2022.2.4",59.709676505999,NA,0
"171","None","None","None","None","None","maps/google_map_1.png","None","objects/2/2_117.jpg","None","outdoors","BicycleWheelRusty.jpg","new",0,112,112,112,NA,NA,NA,NA,NA,NA,"",NA,NA,NA,"",NA,NA,NA,"",NA,NA,NA,"",NA,652.142791417,650.094495542,650.094495542,650.094495542,650.094495542,650.094495542,"left",0.934716417000004,651.328509667,651.328509667,651.328509667,651.328509667,651.328509667,651.328509667,651.328509667,651.328509667,651.328509667,3,0.790963833999854,652.392495417,NA,NA,NA,NA,"","",NA,NA,"",NA,991,"2022-11-25_14h45.18.478","test3","2022.2.4",59.709676505999,NA,0
"172","None","None","None","None","None","maps/google_map_1.png","None","objects/2/2_55.jpg","None","indoors","Desk_School.jpg","new",0,113,113,113,NA,NA,NA,NA,NA,NA,"",NA,NA,NA,"",NA,NA,NA,"",NA,NA,NA,"",NA,654.226932375,652.644649,652.644649,652.644649,652.644649,652.644649,"left",0.780942624999966,653.713592208,653.713592208,653.713592208,653.713592208,653.713592208,653.713592208,653.713592208,653.713592208,653.713592208,1,0.495923041999845,654.476134583,NA,NA,NA,NA,"","",NA,NA,"",NA,991,"2022-11-25_14h45.18.478","test3","2022.2.4",59.709676505999,NA,0
"173","None","None","None","None","None","maps/google_map_1.png","None","objects/2/2_4.jpg","None","indoors","Boardgame_Chess.jpg","new",0,114,114,114,NA,NA,NA,NA,NA,NA,"",NA,NA,NA,"",NA,NA,NA,"",NA,NA,NA,"",NA,657.092756208,654.727268292,654.727268292,654.727268292,654.727268292,654.727268292,"right",0.813576083999919,655.829433292,655.829433292,655.829433292,655.829433292,655.829433292,655.829433292,655.829433292,655.829433292,655.829433292,4,1.23114558299983,657.342771708,NA,NA,NA,NA,"","",NA,NA,"",NA,991,"2022-11-25_14h45.18.478","test3","2022.2.4",59.709676505999,NA,0
"174","2.01725210084034","328.319327731092","356.98319327731105","singletons","115.638655462185","maps/google_map_1.png","None","objects/1/1_31.jpg","0.0","indoors","Shirt_Tshirt.jpg","old",0,115,115,115,0,0,0,0,NA,NA,"",NA,NA,NA,"",NA,NA,NA,"",NA,NA,NA,"",NA,661.026218375,657.594288875,657.594288875,657.594288875,657.594288875,657.594288875,"right",2.19920225099997,660.079062417,660.079062417,660.079062417,660.079062417,660.079062417,660.079062417,660.079062417,660.079062417,660.079062417,6,0.918458457999918,661.50486725,661.50486725,661.50486725,661.50486725,334.5,"['return']","[2.0853634169999395]",NA,NA,"",NA,991,"2022-11-25_14h45.18.478","test3","2022.2.4",59.709676505999,NA,1
"176","3.46330671199857","148.319327731092","328.319327731092","high","198.533505783358","maps/google_map_1.png","140.214178052265","objects/1/1_142.jpg","0.0","indoors","Ball_Disco.jpg","old",0,116,116,116,0,0,0,0,NA,NA,"",NA,NA,NA,"",NA,NA,NA,"",NA,NA,NA,"",NA,666.709943542,663.860600958,663.860600958,663.860600958,663.860600958,663.860600958,"right",1.31078212499995,665.461899708,665.461899708,665.461899708,665.461899708,665.461899708,665.461899708,665.461899708,665.461899708,665.461899708,6,1.22963529200013,667.188352875,667.188352875,667.188352875,667.188352875,318,"['return']","[1.1667092920000641]",NA,NA,"",NA,991,"2022-11-25_14h45.18.478","test3","2022.2.4",59.709676505999,NA,1
"178","0.630978256004724","148.319327731092","328.319327731092","low","36.1707280512262","maps/google_map_1.png","22.148599679866198","objects/1/1_12.jpg","0.0","outdoors","Van.jpg","old",0,117,117,117,0,0,0,0,NA,NA,"",NA,NA,NA,"",NA,NA,NA,"",NA,NA,NA,"",NA,672.510636792,668.627310375,668.627310375,668.627310375,668.627310375,668.627310375,"right",1.957673709,670.877668292,670.877668292,670.877668292,670.877668292,670.877668292,670.877668292,670.877668292,670.877668292,670.877668292,6,1.60896483399995,672.987816208,672.987816208,672.987816208,672.987816208,45.5,"['return']","[3.4625224170000592]",NA,NA,"",NA,991,"2022-11-25_14h45.18.478","test3","2022.2.4",59.709676505999,NA,1
"180","5.70597886186679","71.8991596638655","251.89915966386602","low","327.094329661153","maps/google_map_1.png","14.8048300027121","objects/1/1_83.jpg","0.0","indoors","Chair_Office.jpg","old",0,118,118,118,0,0,0,0,NA,NA,"",NA,NA,NA,"",NA,NA,NA,"",NA,NA,NA,"",NA,679.377136417,676.710599042,676.710599042,676.710599042,676.710599042,676.710599042,"right",1.41730441699985,678.428265417,678.428265417,678.428265417,678.428265417,678.428265417,678.428265417,678.428265417,678.428265417,678.428265417,4,0.929916667000157,679.855288917,679.855288917,679.855288917,679.855288917,235.5,"['return']","[1.831278166999823]",NA,NA,"",NA,991,"2022-11-25_14h45.18.478","test3","2022.2.4",59.709676505999,NA,1
"182","None","None","None","None","None","maps/google_map_1.png","None","objects/2/2_37.jpg","None","indoors","Bowl_Sugar.jpg","new",0,119,119,119,NA,NA,NA,NA,NA,NA,"",NA,NA,NA,"",NA,NA,NA,"",NA,NA,NA,"",NA,684.660182625,681.960234292,681.960234292,681.960234292,681.960234292,681.960234292,"left",1.59893604199999,683.845024542,683.845024542,683.845024542,683.845024542,683.845024542,683.845024542,683.845024542,683.845024542,683.845024542,3,0.783321000000001,684.910373,NA,NA,NA,NA,"","",NA,NA,"",NA,991,"2022-11-25_14h45.18.478","test3","2022.2.4",59.709676505999,NA,0
"183","5.4315788274337","71.8991596638655","251.89915966386602","low","311.36439138155","maps/google_map_1.png","30.534768282315998","objects/1/1_108.jpg","0.0","outdoors","Ambulance.jpg","old",0,120,120,120,0,0,0,0,NA,NA,"",NA,NA,NA,"",NA,NA,NA,"",NA,NA,NA,"",NA,687.660648292,685.159850917,685.159850917,685.159850917,685.159850917,685.159850917,"right",1.26963383299983,686.729480125,686.729480125,686.729480125,686.729480125,686.729480125,686.729480125,686.729480125,686.729480125,686.729480125,5,0.914578416999916,688.141160917,688.141160917,688.141160917,688.141160917,292.5,"['return']","[1.7426249169999437]",NA,NA,"",NA,991,"2022-11-25_14h45.18.478","test3","2022.2.4",59.709676505999,NA,1
"185","None","None","None","None","None","maps/google_map_1.png","None","objects/2/2_118.jpg","None","outdoors","Teardrop.jpg","new",0,121,121,121,NA,NA,NA,NA,NA,NA,"",NA,NA,NA,"",NA,NA,NA,"",NA,NA,NA,"",NA,692.510737125,690.144061708,690.144061708,690.144061708,690.144061708,690.144061708,"left",1.5509122090001,692.01236,692.01236,692.01236,692.01236,692.01236,692.01236,692.01236,692.01236,692.01236,2,0.466833750000092,692.760517542,NA,NA,NA,NA,"","",NA,NA,"",NA,991,"2022-11-25_14h45.18.478","test3","2022.2.4",59.709676505999,NA,0
"186","None","None","None","None","None","maps/google_map_1.png","None","objects/2/2_114.jpg","None","indoors","Piano_Keyboard.jpg","new",0,122,122,122,NA,NA,NA,NA,NA,NA,"",NA,NA,NA,"",NA,NA,NA,"",NA,NA,NA,"",NA,694.543343958,693.011317208,693.011317208,693.011317208,693.011317208,693.011317208,"left",0.830368416999931,694.129301833,694.129301833,694.129301833,694.129301833,694.129301833,694.129301833,694.129301833,694.129301833,694.129301833,2,0.383482999999956,694.794255958,NA,NA,NA,NA,"","",NA,NA,"",NA,991,"2022-11-25_14h45.18.478","test3","2022.2.4",59.709676505999,NA,0
"187","1.2275583630745","148.319327731092","328.319327731092","low","70.36958769216851","maps/google_map_1.png","12.0502599610761","objects/1/1_122.jpg","0.0","indoors","Egg_Cup.jpg","old",0,123,123,123,0,0,0,0,NA,NA,"",NA,NA,NA,"",NA,NA,NA,"",NA,NA,NA,"",NA,696.960624,695.044594125,695.044594125,695.044594125,695.044594125,695.044594125,"right",1.15288012500002,696.496002125,696.496002125,696.496002125,696.496002125,696.496002125,696.496002125,696.496002125,696.496002125,696.496002125,5,0.445082458000002,697.440326083,697.440326083,697.440326083,697.440326083,310,"['return']","[1.610883501000103]",NA,NA,"",NA,991,"2022-11-25_14h45.18.478","test3","2022.2.4",59.709676505999,NA,1
"189","1.61091051948466","148.319327731092","328.319327731092","low","92.34518901504428","maps/google_map_1.png","34.0258612839519","objects/1/1_115.jpg","0.0","indoors","Bottle_CosmeticSpray.jpg","old",0,124,124,124,0,0,0,0,NA,NA,"",NA,NA,NA,"",NA,NA,NA,"",NA,NA,NA,"",NA,702.693938167,699.31058225,699.31058225,699.31058225,699.31058225,699.31058225,"right",2.10145916699992,701.711515167,701.711515167,701.711515167,701.711515167,701.711515167,701.711515167,701.711515167,701.711515167,701.711515167,4,0.951236541999947,703.171613292,703.171613292,703.171613292,703.171613292,115.5,"['return']","[1.0380630000000792]",NA,NA,"",NA,991,"2022-11-25_14h45.18.478","test3","2022.2.4",59.709676505999,NA,1
"191","None","None","None","None","None","maps/google_map_1.png","None","objects/2/2_103.jpg","None","outdoors","Hedgehog.jpg","new",0,125,125,125,NA,NA,NA,NA,NA,NA,"",NA,NA,NA,"",NA,NA,NA,"",NA,NA,NA,"",NA,707.577629875,704.495916042,704.495916042,704.495916042,704.495916042,704.495916042,"left",1.36676041699991,706.16452025,706.16452025,706.16452025,706.16452025,706.16452025,706.16452025,706.16452025,706.16452025,706.16452025,2,1.38184641700002,707.827255333,NA,NA,NA,NA,"","",NA,NA,"",NA,991,"2022-11-25_14h45.18.478","test3","2022.2.4",59.709676505999,NA,0
"192","2.50659176219515","148.319327731092","328.319327731092","medium","143.68997362902098","maps/google_map_1.png","85.3706458979286","objects/1/1_131.jpg","0.0","outdoors","Cart_Wooden.jpg","old",0,126,126,126,0,0,0,0,NA,NA,"",NA,NA,NA,"",NA,NA,NA,"",NA,NA,NA,"",NA,711.545947625,708.078431833,708.078431833,708.078431833,708.078431833,708.078431833,"right",1.04368979200001,709.4128485,709.4128485,709.4128485,709.4128485,709.4128485,709.4128485,709.4128485,709.4128485,709.4128485,6,2.11574933300005,709.4128485,712.039119583,712.039119583,712.039119583,148,"['return']","[4.530480709000017]",NA,NA,"",NA,991,"2022-11-25_14h45.18.478","test3","2022.2.4",59.709676505999,NA,1
"194","None","None","None","None","None","maps/google_map_1.png","None","objects/2/2_31.jpg","None","indoors","Plate_Decorative.jpg","new",0,127,127,127,NA,NA,NA,NA,NA,NA,"",NA,NA,NA,"",NA,NA,NA,"",NA,NA,NA,"",NA,718.860869417,716.846696708,716.846696708,716.846696708,716.846696708,716.846696708,"left",1.32167912600005,718.463989792,718.463989792,718.463989792,718.463989792,718.463989792,718.463989792,718.463989792,718.463989792,718.463989792,2,0.365957791999904,719.111324833,NA,NA,NA,NA,"","",NA,NA,"",NA,991,"2022-11-25_14h45.18.478","test3","2022.2.4",59.709676505999,NA,0
"195","None","None","None","None","None","maps/google_map_1.png","None","objects/2/2_85.jpg","None","outdoors","Mask_Gas.jpg","new",0,128,128,128,NA,NA,NA,NA,NA,NA,"",NA,NA,NA,"",NA,NA,NA,"",NA,NA,NA,"",NA,721.17715525,719.36481,719.36481,719.36481,719.36481,719.36481,"left",1.43269820900002,721.098958542,721.098958542,721.098958542,721.098958542,721.098958542,721.098958542,721.098958542,721.098958542,721.098958542,1,0.0515494170000466,721.431731167,NA,NA,NA,NA,"","",NA,NA,"",NA,991,"2022-11-25_14h45.18.478","test3","2022.2.4",59.709676505999,NA,0
"196","None","None","None","None","None","maps/google_map_1.png","None","objects/2/2_32.jpg","None","outdoors","Tombstone.jpg","new",0,129,129,129,NA,NA,NA,NA,NA,NA,"",NA,NA,NA,"",NA,NA,NA,"",NA,NA,NA,"",NA,723.1937595,721.695439833,721.695439833,721.695439833,721.695439833,721.695439833,"left",0.906344957999977,722.898623917,722.898623917,722.898623917,722.898623917,722.898623917,722.898623917,722.898623917,722.898623917,722.898623917,1,0.274536750000038,723.444466625,NA,NA,NA,NA,"","",NA,NA,"",NA,991,"2022-11-25_14h45.18.478","test3","2022.2.4",59.709676505999,NA,0
"197","None","None","None","None","None","maps/google_map_1.png","None","objects/2/2_98.jpg","None","outdoors","Chinchilla.jpg","new",0,130,130,130,NA,NA,NA,NA,NA,NA,"",NA,NA,NA,"",NA,NA,NA,"",NA,NA,NA,"",NA,725.327966875,723.695750042,723.695750042,723.695750042,723.695750042,723.695750042,"left",1.11585275100003,725.114317542,725.114317542,725.114317542,725.114317542,725.114317542,725.114317542,725.114317542,725.114317542,725.114317542,1,0.195024209000053,725.577235542,NA,NA,NA,NA,"","",NA,NA,"",NA,991,"2022-11-25_14h45.18.478","test3","2022.2.4",59.709676505999,NA,0
"198","None","None","None","None","None","maps/google_map_1.png","None","objects/2/2_65.jpg","None","indoors","Pacifier.jpg","new",0,131,131,131,NA,NA,NA,NA,NA,NA,"",NA,NA,NA,"",NA,NA,NA,"",NA,NA,NA,"",NA,727.660314875,725.828812375,725.828812375,725.828812375,725.828812375,725.828812375,"left",1.25092112499999,727.380683417,727.380683417,727.380683417,727.380683417,727.380683417,727.380683417,727.380683417,727.380683417,727.380683417,2,0.250323332999983,727.911111667,NA,NA,NA,NA,"","",NA,NA,"",NA,991,"2022-11-25_14h45.18.478","test3","2022.2.4",59.709676505999,NA,0
"199","None","None","None","None","None","maps/google_map_1.png","None","objects/2/2_84.jpg","None","outdoors","Sign_Taxi.jpg","new",0,132,132,132,NA,NA,NA,NA,NA,NA,"",NA,NA,NA,"",NA,NA,NA,"",NA,NA,NA,"",NA,729.794480875,728.162068792,728.162068792,728.162068792,728.162068792,728.162068792,"left",0.692890083999941,729.146930875,729.146930875,729.146930875,729.146930875,729.146930875,729.146930875,729.146930875,729.146930875,729.146930875,2,0.629925541999796,730.044371708,NA,NA,NA,NA,"","",NA,NA,"",NA,991,"2022-11-25_14h45.18.478","test3","2022.2.4",59.709676505999,NA,0
"200","6.0361459701246","71.8991596638655","251.89915966386602","low","346.021106567652","maps/google_map_1.png","4.1219469037868794","objects/1/1_133.jpg","0.0","outdoors","Bird_CanadianGoose.jpg","old",0,133,133,133,0,0,0,0,NA,NA,"",NA,NA,NA,"",NA,NA,NA,"",NA,NA,NA,"",NA,732.094393875,730.295134833,730.295134833,730.295134833,730.295134833,730.295134833,"right",1.21417641699998,731.796367417,731.796367417,731.796367417,731.796367417,731.796367417,731.796367417,731.796367417,731.796367417,731.796367417,4,0.278822916999957,732.576248917,732.576248917,732.576248917,732.576248917,324,"['return']","[1.9423724170000014]",NA,NA,"",NA,991,"2022-11-25_14h45.18.478","test3","2022.2.4",59.709676505999,NA,1
"202","None","None","None","None","None","maps/google_map_1.png","None","objects/2/2_33.jpg","None","indoors","Box_WoodenClosed.jpg","new",0,134,134,134,NA,NA,NA,NA,NA,NA,"",NA,NA,NA,"",NA,NA,NA,"",NA,NA,NA,"",NA,737.578124,734.778971583,734.778971583,734.778971583,734.778971583,734.778971583,"right",1.34892741700003,736.43094175,736.43094175,736.43094175,736.43094175,736.43094175,736.43094175,736.43094175,736.43094175,736.43094175,4,1.12648370799991,737.827925667,NA,NA,NA,NA,"","",NA,NA,"",NA,991,"2022-11-25_14h45.18.478","test3","2022.2.4",59.709676505999,NA,0
"203","5.920615485415139","71.8991596638655","251.89915966386602","low","339.398339928256","maps/google_map_1.png","2.50081973560928","objects/1/1_98.jpg","0.0","indoors","Brush_BathBack.jpg","old",0,135,135,135,0,0,0,0,NA,NA,"",NA,NA,NA,"",NA,NA,NA,"",NA,NA,NA,"",NA,743.311183708,738.078778667,738.078778667,738.078778667,738.078778667,738.078778667,"right",0.254200000999958,738.630162875,738.630162875,738.630162875,738.630162875,738.630162875,738.630162875,738.630162875,738.630162875,738.630162875,5,4.65438841699995,743.792855042,743.792855042,743.792855042,743.792855042,109.5,"['return']","[2.3955025419999174]",NA,NA,"",NA,991,"2022-11-25_14h45.18.478","test3","2022.2.4",59.709676505999,NA,1
"205","0.97575514663825","148.319327731092","328.319327731092","low","55.9350084060143","maps/google_map_1.png","2.38431932507811","objects/1/1_56.jpg","0.0","indoors","SafetyPin.jpg","old",0,136,136,136,0,0,0,0,NA,NA,"",NA,NA,NA,"",NA,NA,NA,"",NA,NA,NA,"",NA,748.445085625,746.461795167,746.461795167,746.461795167,746.461795167,746.461795167,"right",1.22748541699991,747.979884375,747.979884375,747.979884375,747.979884375,747.979884375,747.979884375,747.979884375,747.979884375,747.979884375,6,0.443058251000025,748.920261,748.920261,748.920261,748.920261,88.5,"['return']","[2.4088587500001495]",NA,NA,"",NA,991,"2022-11-25_14h45.18.478","test3","2022.2.4",59.709676505999,NA,1
"207","0.0869112558844378","71.8991596638655","251.89915966386602","low","4.9821739042034405","maps/google_map_1.png","23.083014240337896","objects/1/1_109.jpg","0.0","indoors","FloppyDisk.jpg","old",0,137,137,137,0,0,0,0,NA,NA,"",NA,NA,NA,"",NA,NA,NA,"",NA,NA,NA,"",NA,754.228440458,751.595504917,751.595504917,751.595504917,751.595504917,751.595504917,"right",1.26381454199998,753.14745725,753.14745725,753.14745725,753.14745725,753.14745725,753.14745725,753.14745725,753.14745725,753.14745725,5,1.06287291699994,754.707903,754.707903,754.707903,754.707903,74,"['return']","[2.0982428339999615]",NA,NA,"",NA,991,"2022-11-25_14h45.18.478","test3","2022.2.4",59.709676505999,NA,1
"209","3.59061593094402","148.319327731092","328.319327731092","high","205.83148648723702","maps/google_map_1.png","147.512158756144","objects/1/1_28.jpg","0.0","indoors","PaperCutter.jpg","old",0,138,138,138,0,0,0,0,NA,NA,"",NA,NA,NA,"",NA,NA,NA,"",NA,NA,NA,"",NA,761.594878583,757.078899333,757.078899333,757.078899333,757.078899333,757.078899333,"left",2.12563983300004,759.499120333,759.499120333,759.499120333,759.499120333,759.499120333,759.499120333,759.499120333,759.499120333,759.499120333,3,2.07004158400002,762.073283458,762.073283458,762.073283458,762.073283458,166.5,"['return']","[2.7856160000000045]",NA,NA,"",NA,991,"2022-11-25_14h45.18.478","test3","2022.2.4",59.709676505999,NA,0
"211","None","None","None","None","None","maps/google_map_1.png","None","objects/2/2_59.jpg","None","outdoors","Hoverboard.jpg","new",0,139,139,139,NA,NA,NA,NA,NA,NA,"",NA,NA,NA,"",NA,NA,NA,"",NA,NA,NA,"",NA,767.177733417,765.128969208,765.128969208,765.128969208,765.128969208,765.128969208,"left",1.04190437599993,766.463691083,766.463691083,766.463691083,766.463691083,766.463691083,766.463691083,766.463691083,766.463691083,766.463691083,1,0.692499333000001,767.428304667,NA,NA,NA,NA,"","",NA,NA,"",NA,991,"2022-11-25_14h45.18.478","test3","2022.2.4",59.709676505999,NA,0
"212","2.0757402946220602","148.319327731092","328.319327731092","medium","118.991481857316","maps/google_map_1.png","60.672154126223205","objects/1/1_107.jpg","0.0","outdoors","Sled.jpg","old",0,140,140,140,0,0,0,0,NA,NA,"",NA,NA,NA,"",NA,NA,NA,"",NA,NA,NA,"",NA,774.428023583,767.679573542,767.679573542,767.679573542,767.679573542,767.679573542,"right",5.63742687499996,773.614509458,773.614509458,773.614509458,773.614509458,773.614509458,773.614509458,773.614509458,773.614509458,773.614509458,4,0.792751042000077,774.908248917,774.908248917,774.908248917,774.908248917,212,"['return']","[1.9120267080000986]",NA,NA,"",NA,991,"2022-11-25_14h45.18.478","test3","2022.2.4",59.709676505999,NA,1
"214","3.1365606040590603","71.8991596638655","251.89915966386602","high","179.80283717536","maps/google_map_1.png","162.096322488505","objects/1/1_117.jpg","0.0","indoors","Broom_Short.jpg","old",0,141,141,141,0,0,0,0,NA,NA,"",NA,NA,NA,"",NA,NA,NA,"",NA,NA,NA,"",NA,781.16215825,777.078972167,777.078972167,777.078972167,777.078972167,777.078972167,"right",2.78168237600005,780.14723925,780.14723925,780.14723925,780.14723925,780.14723925,780.14723925,780.14723925,780.14723925,780.14723925,4,0.985800457999972,781.637715542,781.637715542,781.637715542,781.637715542,141,"['return']","[1.9413357510001106]",NA,NA,"",NA,991,"2022-11-25_14h45.18.478","test3","2022.2.4",59.709676505999,NA,1
"216","1.37906478308972","71.8991596638655","251.89915966386602","medium","79.054669094315","maps/google_map_1.png","97.15550943044941","objects/1/1_111.jpg","0.0","indoors","Card_TwoSpade.jpg","old",0,142,142,142,0,0,0,0,NA,NA,"",NA,NA,NA,"",NA,NA,NA,"",NA,NA,NA,"",NA,786.263520042,783.846545958,783.846545958,783.846545958,783.846545958,783.846545958,"right",1.55385937499989,785.696748083,785.696748083,785.696748083,785.696748083,785.696748083,785.696748083,785.696748083,785.696748083,785.696748083,6,0.547871542000053,785.696748083,786.755282792,786.755282792,786.755282792,356,"['return']","[2.4554256259999647]",NA,NA,"",NA,991,"2022-11-25_14h45.18.478","test3","2022.2.4",59.709676505999,NA,1
"218","1.11200298672419","148.319327731092","328.319327731092","low","63.745394143424996","maps/google_map_1.png","5.42606641233261","objects/1/1_74.jpg","0.0","outdoors","Car_Buggy.jpg","old",0,143,143,143,0,0,0,0,NA,NA,"",NA,NA,NA,"",NA,NA,NA,"",NA,NA,NA,"",NA,792.245408792,789.481258083,789.481258083,789.481258083,789.481258083,789.481258083,"right",1.28277212499995,791.065613167,791.065613167,791.065613167,791.065613167,791.065613167,791.065613167,791.065613167,791.065613167,791.065613167,5,1.15709262500002,792.718022542,792.718022542,792.718022542,792.718022542,64,"['return']","[4.041275374999827]",NA,NA,"",NA,991,"2022-11-25_14h45.18.478","test3","2022.2.4",59.709676505999,NA,1
"220","3.86456269206506","148.319327731092","328.319327731092","high","221.535440946405","maps/google_map_1.png","163.216113215312","objects/1/1_45.jpg","0.0","outdoors","Tractor_Yellow.jpg","old",0,144,144,144,0,0,0,0,NA,NA,"",NA,NA,NA,"",NA,NA,NA,"",NA,NA,NA,"",NA,802.612045208,797.029744417,797.029744417,797.029744417,797.029744417,797.029744417,"right",4.58096383299983,801.89871,801.89871,801.89871,801.89871,801.89871,801.89871,801.89871,801.89871,801.89871,4,0.68136912500006,803.091651458,803.091651458,803.091651458,803.091651458,274,"['return']","[2.650914041999954]",NA,NA,"",NA,991,"2022-11-25_14h45.18.478","test3","2022.2.4",59.709676505999,NA,1
"222","None","None","None","None","None","maps/google_map_1.png","None","objects/2/2_27.jpg","None","outdoors","Chipmunk.jpg","new",0,145,145,145,NA,NA,NA,NA,NA,NA,"",NA,NA,NA,"",NA,NA,NA,"",NA,NA,NA,"",NA,809.179227667,806.01305475,806.01305475,806.01305475,806.01305475,806.01305475,"right",1.19715220900014,807.496782792,807.496782792,807.496782792,807.496782792,807.496782792,807.496782792,807.496782792,807.496782792,807.496782792,2,1.65401499999996,809.4294405,NA,NA,NA,NA,"","",NA,NA,"",NA,991,"2022-11-25_14h45.18.478","test3","2022.2.4",59.709676505999,NA,0
"223","None","None","None","None","None","maps/google_map_1.png","None","objects/2/2_61.jpg","None","outdoors","BoxTrailer.jpg","new",0,146,146,146,NA,NA,NA,NA,NA,NA,"",NA,NA,NA,"",NA,NA,NA,"",NA,NA,NA,"",NA,812.562447292,809.679935667,809.679935667,809.679935667,809.679935667,809.679935667,"left",2.13740433300006,812.114776708,812.114776708,812.114776708,812.114776708,812.114776708,812.114776708,812.114776708,812.114776708,812.114776708,2,0.416551750999929,812.813026333,NA,NA,NA,NA,"","",NA,NA,"",NA,991,"2022-11-25_14h45.18.478","test3","2022.2.4",59.709676505999,NA,0
"224","1.00759299535782","148.319327731092","328.319327731092","low","57.7601080141423","maps/google_map_1.png","0.559219716950109","objects/1/1_33.jpg","0.0","indoors","JuicerCitrus.jpg","old",0,147,147,147,0,0,0,0,NA,NA,"",NA,NA,NA,"",NA,NA,NA,"",NA,NA,NA,"",NA,814.695846167,813.063336375,813.063336375,813.063336375,813.063336375,813.063336375,"left",1.00410995799996,814.365519917,814.365519917,814.365519917,814.365519917,814.365519917,814.365519917,814.365519917,814.365519917,814.365519917,2,0.298522083999956,815.176358917,815.176358917,815.176358917,815.176358917,176,"['return']","[3.1072701669999105]",NA,NA,"",NA,991,"2022-11-25_14h45.18.478","test3","2022.2.4",59.709676505999,NA,0
"226","5.57231597499423","71.8991596638655","251.89915966386602","low","319.432125955084","maps/google_map_1.png","22.467033708782","objects/1/1_140.jpg","0.0","outdoors","LifeJacket_BlueYellow.jpg","old",0,148,148,148,0,0,0,0,NA,NA,"",NA,NA,NA,"",NA,NA,NA,"",NA,NA,NA,"",NA,821.895857375,818.548333708,818.548333708,818.548333708,818.548333708,818.548333708,"right",1.79943816699995,820.648302,820.648302,820.648302,820.648302,820.648302,820.648302,820.648302,820.648302,820.648302,6,1.22365483399983,822.37200325,822.37200325,822.37200325,822.37200325,338,"['return']","[1.7650568749999138]",NA,NA,"",NA,991,"2022-11-25_14h45.18.478","test3","2022.2.4",59.709676505999,NA,1
"228","None","None","None","None","None","maps/google_map_1.png","None","objects/2/2_2.jpg","None","outdoors","Phone_Public.jpg","new",0,149,149,149,NA,NA,NA,NA,NA,NA,"",NA,NA,NA,"",NA,NA,NA,"",NA,NA,NA,"",NA,826.596006167,824.396707792,824.396707792,824.396707792,824.396707792,824.396707792,"left",1.41412966699988,826.097136,826.097136,826.097136,826.097136,826.097136,826.097136,826.097136,826.097136,826.097136,2,0.470833292000066,826.845960542,NA,NA,NA,NA,"","",NA,NA,"",NA,991,"2022-11-25_14h45.18.478","test3","2022.2.4",59.709676505999,NA,0
"229","None","None","None","None","None","maps/google_map_1.png","None","objects/2/2_26.jpg","None","indoors","DogFood.jpg","new",0,150,150,150,NA,NA,NA,NA,NA,NA,"",NA,NA,NA,"",NA,NA,NA,"",NA,NA,NA,"",NA,828.645959792,827.096646375,827.096646375,827.096646375,827.096646375,827.096646375,"left",0.870896833000074,828.264952542,828.264952542,828.264952542,828.264952542,828.264952542,828.264952542,828.264952542,828.264952542,828.264952542,2,0.352325334000057,828.896358667,NA,NA,NA,NA,"","",NA,NA,"",NA,991,"2022-11-25_14h45.18.478","test3","2022.2.4",59.709676505999,NA,0
"230","None","None","None","None","None","maps/google_map_1.png","None","objects/2/2_11.jpg","None","outdoors","Swan.jpg","new",0,151,151,151,NA,NA,NA,NA,NA,NA,"",NA,NA,NA,"",NA,NA,NA,"",NA,NA,NA,"",NA,831.162990292,829.146754917,829.146754917,829.146754917,829.146754917,829.146754917,"left",1.34667775100013,830.781531917,830.781531917,830.781531917,830.781531917,830.781531917,830.781531917,830.781531917,830.781531917,830.781531917,2,0.36226658399994,830.781531917,NA,NA,NA,NA,"","",NA,NA,"",NA,991,"2022-11-25_14h45.18.478","test3","2022.2.4",59.709676505999,NA,0
"231","None","None","None","None","None","maps/google_map_1.png","None","objects/2/2_34.jpg","None","outdoors","Ship_Cruise.jpg","new",0,152,152,152,NA,NA,NA,NA,NA,NA,"",NA,NA,NA,"",NA,NA,NA,"",NA,NA,NA,"",NA,833.379913792,831.662581125,831.662581125,831.662581125,831.662581125,831.662581125,"left",0.998729292000121,832.949078167,832.949078167,832.949078167,832.949078167,832.949078167,832.949078167,832.949078167,832.949078167,832.949078167,1,0.407399207999902,833.62906075,NA,NA,NA,NA,"","",NA,NA,"",NA,991,"2022-11-25_14h45.18.478","test3","2022.2.4",59.709676505999,NA,0
"232","0.0831957505742666","71.8991596638655","251.89915966386602","low","4.769183153938849","maps/google_map_1.png","22.8700234900733","objects/1/1_42.jpg","0.0","indoors","Tambourine.jpg","old",0,153,153,153,0,0,0,0,NA,NA,"",NA,NA,NA,"",NA,NA,NA,"",NA,NA,NA,"",NA,835.946075542,833.880639833,833.880639833,833.880639833,833.880639833,833.880639833,"right",1.12052216699988,835.298548083,835.298548083,835.298548083,835.298548083,835.298548083,835.298548083,835.298548083,835.298548083,835.298548083,6,0.628913249999982,836.426743083,836.426743083,836.426743083,836.426743083,75,"['return']","[2.032411500999956]",NA,NA,"",NA,991,"2022-11-25_14h45.18.478","test3","2022.2.4",59.709676505999,NA,1
"234","None","None","None","None","None","maps/google_map_1.png","None","objects/2/2_122.jpg","None","indoors","Toy_Alien.jpg","new",0,154,154,154,NA,NA,NA,NA,NA,NA,"",NA,NA,NA,"",NA,NA,NA,"",NA,NA,NA,"",NA,840.812819583,838.730679208,838.730679208,838.730679208,838.730679208,838.730679208,"left",1.26955679200012,840.29844475,840.29844475,840.29844475,840.29844475,840.29844475,840.29844475,840.29844475,840.29844475,840.29844475,2,0.490756916999885,841.062727417,NA,NA,NA,NA,"","",NA,NA,"",NA,991,"2022-11-25_14h45.18.478","test3","2022.2.4",59.709676505999,NA,0
"235","1.25459332072541","71.8991596638655","251.89915966386602","medium","71.91936233457758","maps/google_map_1.png","90.020202670712","objects/1/1_22.jpg","0.0","indoors","Toy_BearBluePlushie.jpg","old",0,155,155,155,0,0,0,0,NA,NA,"",NA,NA,NA,"",NA,NA,NA,"",NA,NA,NA,"",NA,842.863131667,841.313611042,841.313611042,841.313611042,841.313611042,841.313611042,"left",0.893927958999825,842.4986595,842.4986595,842.4986595,842.4986595,842.4986595,842.4986595,842.4986595,842.4986595,842.4986595,3,0.345715999999925,843.340499042,843.340499042,843.340499042,843.340499042,16,"['return']","[2.583154916999888]",NA,NA,"",NA,991,"2022-11-25_14h45.18.478","test3","2022.2.4",59.709676505999,NA,0
"237","0.854281142653355","71.8991596638655","251.89915966386602","medium","48.9715304705745","maps/google_map_1.png","67.0723708067089","objects/1/1_114.jpg","0.0","outdoors","Backhoe.jpg","old",0,156,156,156,0,0,0,0,NA,NA,"",NA,NA,NA,"",NA,NA,NA,"",NA,NA,NA,"",NA,849.263426792,846.19717125,846.19717125,846.19717125,846.19717125,846.19717125,"right",1.3565326669999,847.849729333,847.849729333,847.849729333,847.849729333,847.849729333,847.849729333,847.849729333,847.849729333,847.849729333,5,1.3890897089999,849.735152208,849.735152208,849.735152208,849.735152208,290,"['return']","[1.7261082500000384]",NA,NA,"",NA,991,"2022-11-25_14h45.18.478","test3","2022.2.4",59.709676505999,NA,1
