"","radians","pos_1","pos_2","type","degrees","map_file","PE","object","isFiller","outdoors_response","stimulus","old_new","trials.thisRepN","trials.thisTrialN","trials.thisN","trials.thisIndex","location_loop.thisRepN","location_loop.thisTrialN","location_loop.thisN","location_loop.thisIndex","instructions_text.started","key_resp.started","key_resp.keys","key_resp.rt","Instructions_2_text.started","instr_2_resp.started","instr_2_resp.keys","instr_2_resp.rt","Instructions_3_text.started","Instr_3_resp.started","Instr_3_resp.keys","Instr_3_resp.rt","Instr_4_text.started","Instr_4_resp.started","Instr_4_resp.keys","Instr_4_resp.rt","text_4.started","image_feedb.started","recog_resp.started","recog_prompt.started","recog_option_left.started","recog_option_right.started","recog_resp.keys","recog_resp.rt","image_feedb_2.started","conf_resp.started","conf_prompt.started","conf_1.started","conf_2.started","conf_3.started","conf_4.started","conf_5.started","conf_6.started","conf_resp.keys","conf_resp.rt","text_4.stopped","image_2.started","predict_prompt.started","line.started","response","key_resp_2.keys","key_resp_2.rt","instructions_text_2.started","key_resp_3.started","key_resp_3.keys","key_resp_3.rt","participant","date","expName","psychopyVersion","frameRate","X","recog_acc"
"5","None","None","None","None","None","maps/google_map_1.png","None","objects/2/2_96.jpg","None","outdoors","Sphinx.jpg","new",0,0,0,0,NA,NA,NA,NA,NA,NA,"",NA,NA,NA,"",NA,NA,NA,"",NA,NA,NA,"",NA,91.1522154589984,78.132993584004,78.132993584004,78.132993584004,78.132993584004,78.132993584004,"right",1.41103820799617,79.8605506669992,79.8605506669992,79.8605506669992,79.8605506669992,79.8605506669992,79.8605506669992,79.8605506669992,79.8605506669992,79.8605506669992,1,11.2747977489998,91.4022185840004,NA,NA,NA,NA,"","",NA,NA,"",NA,992,"2022-11-28_09h40.15.205","recognition","2022.2.4",59.9000269749823,NA,0
"6","4.70120448179272","238.319327731092","230.27731092437","singletons","269.495798319328","maps/google_map_1.png","None","objects/1/1_71.jpg","0.0","outdoors","TotemPole.jpg","old",0,1,1,1,0,0,0,0,NA,NA,"",NA,NA,NA,"",NA,NA,NA,"",NA,NA,NA,"",NA,97.8855303750024,91.6518818340046,91.6518818340046,91.6518818340046,91.6518818340046,91.6518818340046,"left",3.51075299999502,95.4519806669996,95.4519806669996,95.4519806669996,95.4519806669996,95.4519806669996,95.4519806669996,95.4519806669996,95.4519806669996,95.4519806669996,6,2.41002916599973,98.3783036250024,98.3783036250024,98.3783036250024,98.3783036250024,222.5,"['return']","[9.178794998995727]",NA,NA,"",NA,992,"2022-11-28_09h40.15.205","recognition","2022.2.4",59.9000269749823,NA,1
"8","None","None","None","None","None","maps/google_map_1.png","None","objects/2/2_81.jpg","None","outdoors","ChariotGold.jpg","new",0,2,2,2,NA,NA,NA,NA,NA,NA,"",NA,NA,NA,"",NA,NA,NA,"",NA,NA,NA,"",NA,111.551534334001,107.820590542004,107.820590542004,107.820590542004,107.820590542004,107.820590542004,"right",2.16953029099386,110.28415675,110.28415675,110.28415675,110.28415675,110.28415675,110.28415675,110.28415675,110.28415675,110.28415675,1,1.244867333,111.802010375002,NA,NA,NA,NA,"","",NA,NA,"",NA,992,"2022-11-28_09h40.15.205","recognition","2022.2.4",59.9000269749823,NA,0
"9","None","None","None","None","None","maps/google_map_1.png","None","objects/2/2_107.jpg","None","indoors","Plunger.jpg","new",0,3,3,3,NA,NA,NA,NA,NA,NA,"",NA,NA,NA,"",NA,NA,NA,"",NA,NA,NA,"",NA,126.685923584002,112.051848584,112.051848584,112.051848584,112.051848584,112.051848584,"left",5.50852058299643,117.850021792001,117.850021792001,117.850021792001,117.850021792001,117.850021792001,117.850021792001,117.850021792001,117.850021792001,117.850021792001,4,8.80827029200009,126.936021624999,NA,NA,NA,NA,"","",NA,NA,"",NA,992,"2022-11-28_09h40.15.205","recognition","2022.2.4",59.9000269749823,NA,0
"10","2.08531791257233","148.319327731092","328.319327731092","medium","119.540517281217","maps/google_map_1.png","61.2211895501241","objects/1/1_110.jpg","0.0","outdoors","Boot_Rain.jpg","old",0,4,4,4,0,0,0,0,NA,NA,"",NA,NA,NA,"",NA,NA,NA,"",NA,NA,NA,"",NA,130.935836750003,127.185009417,127.185009417,127.185009417,127.185009417,127.185009417,"left",1.06419291700149,128.534643334002,128.534643334002,128.534643334002,128.534643334002,128.534643334002,128.534643334002,128.534643334002,128.534643334002,128.534643334002,6,2.38262454199867,131.407810167002,131.407810167002,131.407810167002,131.407810167002,134.5,"['return']","[4.630769291004981]",NA,NA,"",NA,992,"2022-11-28_09h40.15.205","recognition","2022.2.4",59.9000269749823,NA,1
"12","1.0368956364235502","148.319327731092","328.319327731092","low","59.43987724721","maps/google_map_1.png","1.12054951611758","objects/1/1_6.jpg","0.0","indoors","Syrup_Maple.jpg","old",0,5,5,5,0,0,0,0,NA,NA,"",NA,NA,NA,"",NA,NA,NA,"",NA,NA,NA,"",NA,141.985699666999,136.303895000005,136.303895000005,136.303895000005,136.303895000005,136.303895000005,"left",2.02173624899297,138.620749000002,138.620749000002,138.620749000002,138.620749000002,138.620749000002,138.620749000002,138.620749000002,138.620749000002,138.620749000002,6,3.34773233299347,142.448338374998,142.448338374998,142.448338374998,142.448338374998,30.5,"['return']","[5.357031998995808]",NA,NA,"",NA,992,"2022-11-28_09h40.15.205","recognition","2022.2.4",59.9000269749823,NA,1
"14","6.22893896519562","71.8991596638655","251.89915966386602","low","357.072934310577","maps/google_map_1.png","15.173774646711099","objects/1/1_67.jpg","0.0","indoors","Stamp.jpg","old",0,6,6,6,0,0,0,0,NA,NA,"",NA,NA,NA,"",NA,NA,NA,"",NA,NA,NA,"",NA,151.669074083999,148.069841750003,148.069841750003,148.069841750003,148.069841750003,148.069841750003,"left",1.91391924899654,150.268560292003,150.268560292003,150.268560292003,150.268560292003,150.268560292003,150.268560292003,150.268560292003,150.268560292003,150.268560292003,6,1.38384562399733,152.131876291998,152.131876291998,152.131876291998,152.131876291998,24.5,"['return']","[6.821237457996176]",NA,NA,"",NA,992,"2022-11-28_09h40.15.205","recognition","2022.2.4",59.9000269749823,NA,1
"16","None","None","None","None","None","maps/google_map_1.png","None","objects/2/2_112.jpg","None","indoors","HairClipper.jpg","new",0,7,7,7,NA,NA,NA,NA,NA,NA,"",NA,NA,NA,"",NA,NA,NA,"",NA,NA,NA,"",NA,164.035416541999,159.219167374999,159.219167374999,159.219167374999,159.219167374999,159.219167374999,"right",2.35405820800224,161.868479792,161.868479792,161.868479792,161.868479792,161.868479792,161.868479792,161.868479792,161.868479792,161.868479792,1,2.13949066599889,164.286080459002,NA,NA,NA,NA,"","",NA,NA,"",NA,992,"2022-11-28_09h40.15.205","recognition","2022.2.4",59.9000269749823,NA,0
"17","None","None","None","None","None","maps/google_map_1.png","None","objects/2/2_119.jpg","None","outdoors","Statue_Jesus.jpg","new",0,8,8,8,NA,NA,NA,NA,NA,NA,"",NA,NA,NA,"",NA,NA,NA,"",NA,NA,NA,"",NA,167.652968916998,164.536051458999,164.536051458999,164.536051458999,164.536051458999,164.536051458999,"right",2.02297908299806,166.852035167001,166.852035167001,166.852035167001,166.852035167001,166.852035167001,166.852035167001,166.852035167001,166.852035167001,166.852035167001,1,0.772665457996482,167.902902292,NA,NA,NA,NA,"","",NA,NA,"",NA,992,"2022-11-28_09h40.15.205","recognition","2022.2.4",59.9000269749823,NA,0
"18","1.38722744858078","148.319327731092","328.319327731092","low","79.5225925938027","maps/google_map_1.png","21.203264862710302","objects/1/1_125.jpg","0.0","outdoors","Pickaxe.jpg","old",0,9,9,9,0,0,0,0,NA,NA,"",NA,NA,NA,"",NA,NA,NA,"",NA,NA,NA,"",NA,173.519815917003,168.152549042003,168.152549042003,168.152549042003,168.152549042003,168.152549042003,"left",3.09416220799903,171.551342084,171.551342084,171.551342084,171.551342084,171.551342084,171.551342084,171.551342084,171.551342084,171.551342084,6,1.94542474999616,173.988201500004,173.988201500004,173.988201500004,173.988201500004,119.5,"['return']","[7.693267124996055]",NA,NA,"",NA,992,"2022-11-28_09h40.15.205","recognition","2022.2.4",59.9000269749823,NA,1
"20","5.5995671402764","71.8991596638655","251.89915966386602","low","320.994294665526","maps/google_map_1.png","20.9048649983393","objects/1/1_96.jpg","0.0","outdoors","Backpack_Travel.jpg","old",0,10,10,10,0,0,0,0,NA,NA,"",NA,NA,NA,"",NA,NA,NA,"",NA,NA,NA,"",NA,186.953376541998,181.954611084002,181.954611084002,181.954611084002,181.954611084002,181.954611084002,"left",3.42986970800121,185.670384584002,185.670384584002,185.670384584002,185.670384584002,185.670384584002,185.670384584002,185.670384584002,185.670384584002,185.670384584002,6,1.25073337500362,187.418365834004,187.418365834004,187.418365834004,187.418365834004,235,"['return']","[3.46517304200097]",NA,NA,"",NA,992,"2022-11-28_09h40.15.205","recognition","2022.2.4",59.9000269749823,NA,1
"22","None","None","None","None","None","maps/google_map_1.png","None","objects/2/2_50.jpg","None","indoors","DVDPlayer.jpg","new",0,11,11,11,NA,NA,NA,NA,NA,NA,"",NA,NA,NA,"",NA,NA,NA,"",NA,NA,NA,"",NA,200.603731584,191.154244334,191.154244334,191.154244334,191.154244334,191.154244334,"right",4.69694158300263,196.137009334001,196.137009334001,196.137009334001,196.137009334001,196.137009334001,196.137009334001,196.137009334001,196.137009334001,196.137009334001,2,4.44824245799828,200.853379459004,NA,NA,NA,NA,"","",NA,NA,"",NA,992,"2022-11-28_09h40.15.205","recognition","2022.2.4",59.9000269749823,NA,0
"23","3.07446109398633","71.8991596638655","251.89915966386602","high","176.24299264889802","maps/google_map_1.png","165.656167014968","objects/1/1_130.jpg","0.0","indoors","PillBottle_Spilled.jpg","old",0,12,12,12,0,0,0,0,NA,NA,"",NA,NA,NA,"",NA,NA,NA,"",NA,NA,NA,"",NA,204.835829750002,201.102790917001,201.102790917001,201.102790917001,201.102790917001,201.102790917001,"left",1.77633987499576,203.167729917004,203.167729917004,203.167729917004,203.167729917004,203.167729917004,203.167729917004,203.167729917004,203.167729917004,203.167729917004,6,1.64730329099984,205.300585917001,205.300585917001,205.300585917001,205.300585917001,223,"['return']","[5.592964207993646]",NA,NA,"",NA,992,"2022-11-28_09h40.15.205","recognition","2022.2.4",59.9000269749823,NA,1
"25","1.2201187464001002","148.319327731092","328.319327731092","low","69.9431128509614","maps/google_map_1.png","11.623785119869002","objects/1/1_101.jpg","0.0","indoors","Chicken_FriedWing.jpg","old",0,13,13,13,0,0,0,0,NA,NA,"",NA,NA,NA,"",NA,NA,NA,"",NA,NA,NA,"",NA,214.837106625004,211.155105459002,211.155105459002,211.155105459002,211.155105459002,211.155105459002,"left",1.5729534159982,213.021728792002,213.021728792002,213.021728792002,213.021728792002,213.021728792002,213.021728792002,213.021728792002,213.021728792002,213.021728792002,6,1.7898979169986,215.300664709001,215.300664709001,215.300664709001,215.300664709001,31.5,"['return']","[3.905752915998164]",NA,NA,"",NA,992,"2022-11-28_09h40.15.205","recognition","2022.2.4",59.9000269749823,NA,1
"27","5.7887617121071395","71.8991596638655","251.89915966386602","low","331.839843369199","maps/google_map_1.png","10.0593162946665","objects/1/1_76.jpg","0.0","indoors","CoffeePot.jpg","old",0,14,14,14,0,0,0,0,NA,NA,"",NA,NA,NA,"",NA,NA,NA,"",NA,NA,NA,"",NA,223.086704334004,219.471373667002,219.471373667002,219.471373667002,219.471373667002,219.471373667002,"left",1.46463033300097,221.237237834001,221.237237834001,221.237237834001,221.237237834001,221.237237834001,221.237237834001,221.237237834001,221.237237834001,221.237237834001,6,1.83159691600304,223.551161042,223.551161042,223.551161042,223.551161042,31.5,"['return']","[3.6451559999986785]",NA,NA,"",NA,992,"2022-11-28_09h40.15.205","recognition","2022.2.4",59.9000269749823,NA,1
"29","5.17959802888803","71.8991596638655","251.89915966386602","low","296.91963222925","maps/google_map_1.png","44.9795274346153","objects/1/1_69.jpg","0.0","indoors","Protractor.jpg","old",0,15,15,15,0,0,0,0,NA,NA,"",NA,NA,NA,"",NA,NA,NA,"",NA,NA,NA,"",NA,232.236820083999,227.471001999998,227.471001999998,227.471001999998,227.471001999998,227.471001999998,"left",3.23380516699399,231.003703916998,231.003703916998,231.003703916998,231.003703916998,231.003703916998,231.003703916998,231.003703916998,231.003703916998,231.003703916998,6,1.20918650000385,232.700324999998,232.700324999998,232.700324999998,232.700324999998,327.5,"['return']","[3.2675295829976676]",NA,NA,"",NA,992,"2022-11-28_09h40.15.205","recognition","2022.2.4",59.9000269749823,NA,1
"31","None","None","None","None","None","maps/google_map_1.png","None","objects/2/2_99.jpg","None","indoors","WaterCooler.jpg","new",0,16,16,16,NA,NA,NA,NA,NA,NA,"",NA,NA,NA,"",NA,NA,NA,"",NA,NA,NA,"",NA,240.204207834002,236.254795917004,236.254795917004,236.254795917004,236.254795917004,236.254795917004,"right",2.28775174999464,238.838067042001,238.838067042001,238.838067042001,238.838067042001,238.838067042001,238.838067042001,238.838067042001,238.838067042001,238.838067042001,1,1.34139983299247,238.838067042001,NA,NA,NA,NA,"","",NA,NA,"",NA,992,"2022-11-28_09h40.15.205","recognition","2022.2.4",59.9000269749823,NA,0
"32","5.41352391396646","71.8991596638655","251.89915966386602","low","310.329396342027","maps/google_map_1.png","31.5697633218389","objects/1/1_129.jpg","0.0","indoors","Shoes_DutchClogs.jpg","old",0,17,17,17,0,0,0,0,NA,NA,"",NA,NA,NA,"",NA,NA,NA,"",NA,NA,NA,"",NA,244.887780625002,240.72043175,240.72043175,240.72043175,240.72043175,240.72043175,"left",2.05591291699966,243.071489000002,243.071489000002,243.071489000002,243.071489000002,243.071489000002,243.071489000002,243.071489000002,243.071489000002,243.071489000002,6,1.78883429099369,243.071489000002,245.354944792001,245.354944792001,245.354944792001,65.5,"['return']","[4.344340208001086]",NA,NA,"",NA,992,"2022-11-28_09h40.15.205","recognition","2022.2.4",59.9000269749823,NA,1
"34","4.2919573003708305","148.319327731092","328.319327731092","high","246.03576881106702","maps/google_map_1.png","172.28355892002602","objects/1/1_64.jpg","0.0","indoors","Socks_Baby.jpg","old",0,18,18,18,0,0,0,0,NA,NA,"",NA,NA,NA,"",NA,NA,NA,"",NA,NA,NA,"",NA,255.369803875001,249.972575792002,249.972575792002,249.972575792002,249.972575792002,249.972575792002,"left",1.4992685410034,251.770512249997,251.770512249997,251.770512249997,251.770512249997,251.770512249997,251.770512249997,251.770512249997,251.770512249997,251.770512249997,6,3.58233820800524,255.833393917004,255.833393917004,255.833393917004,255.833393917004,44.5,"['return']","[5.873475958003837]",NA,NA,"",NA,992,"2022-11-28_09h40.15.205","recognition","2022.2.4",59.9000269749823,NA,1
"36","None","None","None","None","None","maps/google_map_1.png","None","objects/2/2_42.jpg","None","outdoors","DivingBoard.jpg","new",0,19,19,19,NA,NA,NA,NA,NA,NA,"",NA,NA,NA,"",NA,NA,NA,"",NA,NA,NA,"",NA,281.421504459002,261.971795999998,261.971795999998,261.971795999998,261.971795999998,261.971795999998,"right",2.14356520799629,264.404189500005,264.404189500005,264.404189500005,264.404189500005,264.404189500005,264.404189500005,264.404189500005,264.404189500005,264.404189500005,1,16.9989340419997,281.671555667002,NA,NA,NA,NA,"","",NA,NA,"",NA,992,"2022-11-28_09h40.15.205","recognition","2022.2.4",59.9000269749823,NA,0
"37","2.53825212234297","71.8991596638655","251.89915966386602","high","145.50489873303698","maps/google_map_1.png","163.60573906917102","objects/1/1_4.jpg","0.0","outdoors","Jet.jpg","old",0,20,20,20,0,0,0,0,NA,NA,"",NA,NA,NA,"",NA,NA,NA,"",NA,NA,NA,"",NA,285.454634041998,281.920754541999,281.920754541999,281.920754541999,281.920754541999,281.920754541999,"left",1.80001879099291,284.003983834002,284.003983834002,284.003983834002,284.003983834002,284.003983834002,284.003983834002,284.003983834002,284.003983834002,284.003983834002,6,1.43340850000095,285.917209459003,285.917209459003,285.917209459003,285.917209459003,224,"['return']","[1.9667582500042045]",NA,NA,"",NA,992,"2022-11-28_09h40.15.205","recognition","2022.2.4",59.9000269749823,NA,1
"39","None","None","None","None","None","maps/google_map_1.png","None","objects/2/2_48.jpg","None","outdoors","Archery_ArrowsBows.jpg","new",0,21,21,21,NA,NA,NA,NA,NA,NA,"",NA,NA,NA,"",NA,NA,NA,"",NA,NA,NA,"",NA,298.887737834004,288.155621209,288.155621209,288.155621209,288.155621209,288.155621209,"right",5.52150249999977,293.970697500001,293.970697500001,293.970697500001,293.970697500001,293.970697500001,293.970697500001,293.970697500001,293.970697500001,293.970697500001,1,4.89865079199808,299.138295750003,NA,NA,NA,NA,"","",NA,NA,"",NA,992,"2022-11-28_09h40.15.205","recognition","2022.2.4",59.9000269749823,NA,0
"40","None","None","None","None","None","maps/google_map_1.png","None","objects/2/2_115.jpg","None","indoors","Maraca.jpg","new",0,22,22,22,NA,NA,NA,NA,NA,NA,"",NA,NA,NA,"",NA,NA,NA,"",NA,NA,NA,"",NA,304.638566875001,299.387686583999,299.387686583999,299.387686583999,299.387686583999,299.387686583999,"right",4.46151412399922,304.154354209,304.154354209,304.154354209,304.154354209,304.154354209,304.154354209,304.154354209,304.154354209,304.154354209,1,0.465851790999295,304.888761417002,NA,NA,NA,NA,"","",NA,NA,"",NA,992,"2022-11-28_09h40.15.205","recognition","2022.2.4",59.9000269749823,NA,0
"41","None","None","None","None","None","maps/google_map_1.png","None","objects/2/2_39.jpg","None","indoors","Blackboard.jpg","new",0,23,23,23,NA,NA,NA,NA,NA,NA,"",NA,NA,NA,"",NA,NA,NA,"",NA,NA,NA,"",NA,309.088348083998,305.138006292,305.138006292,305.138006292,305.138006292,305.138006292,"right",2.6927111240002,308.121474125001,308.121474125001,308.121474125001,308.121474125001,308.121474125001,308.121474125001,308.121474125001,308.121474125001,308.121474125001,1,0.940280165996228,309.337417250004,NA,NA,NA,NA,"","",NA,NA,"",NA,992,"2022-11-28_09h40.15.205","recognition","2022.2.4",59.9000269749823,NA,0
"42","None","None","None","None","None","maps/google_map_1.png","None","objects/2/2_108.jpg","None","outdoors","BasketballHoop.jpg","new",0,24,24,24,NA,NA,NA,NA,NA,NA,"",NA,NA,NA,"",NA,NA,NA,"",NA,NA,NA,"",NA,311.521419709003,309.588096459003,309.588096459003,309.588096459003,309.588096459003,309.588096459003,"right",1.1155477489956,310.985806417004,310.985806417004,310.985806417004,310.985806417004,310.985806417004,310.985806417004,310.985806417004,310.985806417004,310.985806417004,1,0.505405667005107,311.77076575,NA,NA,NA,NA,"","",NA,NA,"",NA,992,"2022-11-28_09h40.15.205","recognition","2022.2.4",59.9000269749823,NA,0
"43","None","None","None","None","None","maps/google_map_1.png","None","objects/2/2_93.jpg","None","indoors","Garbage_Can.jpg","new",0,25,25,25,NA,NA,NA,NA,NA,NA,"",NA,NA,NA,"",NA,NA,NA,"",NA,NA,NA,"",NA,315.554757334001,312.021287459,312.021287459,312.021287459,312.021287459,312.021287459,"right",2.55621166600031,314.869538416999,314.869538416999,314.869538416999,314.869538416999,314.869538416999,314.869538416999,314.869538416999,314.869538416999,314.869538416999,1,0.667115665994061,315.805227709003,NA,NA,NA,NA,"","",NA,NA,"",NA,992,"2022-11-28_09h40.15.205","recognition","2022.2.4",59.9000269749823,NA,0
"44","None","None","None","None","None","maps/google_map_1.png","None","objects/2/2_121.jpg","None","indoors","Toy_ElephantPlastic.jpg","new",0,26,26,26,NA,NA,NA,NA,NA,NA,"",NA,NA,NA,"",NA,NA,NA,"",NA,NA,NA,"",NA,318.005221584004,316.054723709,316.054723709,316.054723709,316.054723709,316.054723709,"right",0.982176374003757,317.321061916999,317.321061916999,317.321061916999,317.321061916999,317.321061916999,317.321061916999,317.321061916999,317.321061916999,317.321061916999,1,0.665813541992975,318.254683125,NA,NA,NA,NA,"","",NA,NA,"",NA,992,"2022-11-28_09h40.15.205","recognition","2022.2.4",59.9000269749823,NA,0
"45","None","None","None","None","None","maps/google_map_1.png","None","objects/2/2_75.jpg","None","indoors","Cabinet_Display.jpg","new",0,27,27,27,NA,NA,NA,NA,NA,NA,"",NA,NA,NA,"",NA,NA,NA,"",NA,NA,NA,"",NA,320.4718565,318.506151792004,318.506151792004,318.506151792004,318.506151792004,318.506151792004,"right",1.21382629100117,320.004495834,320.004495834,320.004495834,320.004495834,320.004495834,320.004495834,320.004495834,320.004495834,320.004495834,1,0.43833941599587,320.721906874998,NA,NA,NA,NA,"","",NA,NA,"",NA,992,"2022-11-28_09h40.15.205","recognition","2022.2.4",59.9000269749823,NA,0
"46","None","None","None","None","None","maps/google_map_1.png","None","objects/2/2_83.jpg","None","indoors","Almond.jpg","new",0,28,28,28,NA,NA,NA,NA,NA,NA,"",NA,NA,NA,"",NA,NA,NA,"",NA,NA,NA,"",NA,322.521830709004,320.972294833999,320.972294833999,320.972294833999,320.972294833999,320.972294833999,"right",0.814480416003789,322.071774584001,322.071774584001,322.071774584001,322.071774584001,322.071774584001,322.071774584001,322.071774584001,322.071774584001,322.071774584001,1,0.425634874001844,322.771792959,NA,NA,NA,NA,"","",NA,NA,"",NA,992,"2022-11-28_09h40.15.205","recognition","2022.2.4",59.9000269749823,NA,0
"47","None","None","None","None","None","maps/google_map_1.png","None","objects/2/2_111.jpg","None","outdoors","Sign_NoParking.jpg","new",0,29,29,29,NA,NA,NA,NA,NA,NA,"",NA,NA,NA,"",NA,NA,NA,"",NA,NA,NA,"",NA,324.888348125001,323.021822250004,323.021822250004,323.021822250004,323.021822250004,323.021822250004,"right",0.783528583000589,324.087978959004,324.087978959004,324.087978959004,324.087978959004,324.087978959004,324.087978959004,324.087978959004,324.087978959004,324.087978959004,1,0.769876332997228,325.13865175,NA,NA,NA,NA,"","",NA,NA,"",NA,992,"2022-11-28_09h40.15.205","recognition","2022.2.4",59.9000269749823,NA,0
"48","3.1750354808590098","238.319327731092","70.3865546218487","singletons","182.008403361345","maps/google_map_1.png","None","objects/1/1_134.jpg","0.0","outdoors","TowerEiffel.jpg","old",0,30,30,30,0,0,0,0,NA,NA,"",NA,NA,NA,"",NA,NA,NA,"",NA,NA,NA,"",NA,328.522220749997,325.387991167001,325.387991167001,325.387991167001,325.387991167001,325.387991167001,"left",1.18400204199861,326.854408542,326.854408542,326.854408542,326.854408542,326.854408542,326.854408542,326.854408542,326.854408542,326.854408542,6,1.64918312500231,328.987596375002,328.987596375002,328.987596375002,328.987596375002,220,"['return']","[2.152354333004041]",NA,NA,"",NA,992,"2022-11-28_09h40.15.205","recognition","2022.2.4",59.9000269749823,NA,1
"50","2.2555394032633997","71.8991596638655","251.89915966386602","high","129.298437129749","maps/google_map_1.png","147.399277465884","objects/1/1_93.jpg","0.0","outdoors","Bird_Toucan.jpg","old",0,31,31,31,0,0,0,0,NA,NA,"",NA,NA,NA,"",NA,NA,NA,"",NA,NA,NA,"",NA,335.404892792001,331.406989374998,331.406989374998,331.406989374998,331.406989374998,331.406989374998,"left",2.02957616599451,333.720731499998,333.720731499998,333.720731499998,333.720731499998,333.720731499998,333.720731499998,333.720731499998,333.720731499998,333.720731499998,6,1.66763016599725,335.872414750003,335.872414750003,335.872414750003,335.872414750003,141,"['return']","[4.455111249997572]",NA,NA,"",NA,992,"2022-11-28_09h40.15.205","recognition","2022.2.4",59.9000269749823,NA,1
"52","None","None","None","None","None","maps/google_map_1.png","None","objects/2/2_10.jpg","None","outdoors","TrapAnimal.jpg","new",0,32,32,32,NA,NA,NA,NA,NA,NA,"",NA,NA,NA,"",NA,NA,NA,"",NA,NA,NA,"",NA,346.072816542001,340.588316041998,340.588316041998,340.588316041998,340.588316041998,340.588316041998,"right",1.87771212399821,342.770620333999,342.770620333999,342.770620333999,342.770620333999,342.770620333999,342.770620333999,342.770620333999,342.770620333999,342.770620333999,1,3.27345645799505,346.321840167002,NA,NA,NA,NA,"","",NA,NA,"",NA,992,"2022-11-28_09h40.15.205","recognition","2022.2.4",59.9000269749823,NA,0
"53","None","None","None","None","None","maps/google_map_1.png","None","objects/2/2_135.jpg","None","outdoors","Toy_Slide.jpg","new",0,33,33,33,NA,NA,NA,NA,NA,NA,"",NA,NA,NA,"",NA,NA,NA,"",NA,NA,NA,"",NA,349.438210667002,346.571694334001,346.571694334001,346.571694334001,346.571694334001,346.571694334001,"right",1.65566808299627,348.522403499999,348.522403499999,348.522403499999,348.522403499999,348.522403499999,348.522403499999,348.522403499999,348.522403499999,348.522403499999,1,0.891527249994397,349.689046917003,NA,NA,NA,NA,"","",NA,NA,"",NA,992,"2022-11-28_09h40.15.205","recognition","2022.2.4",59.9000269749823,NA,0
"54","1.1046566948971699","148.319327731092","328.319327731092","low","63.3242691342329","maps/google_map_1.png","5.0049414031405","objects/1/1_54.jpg","0.0","outdoors","LeafBlower.jpg","old",0,34,34,34,0,0,0,0,NA,NA,"",NA,NA,NA,"",NA,NA,NA,"",NA,NA,NA,"",NA,359.189338791999,349.937902875005,349.937902875005,349.937902875005,349.937902875005,349.937902875005,"left",6.33380620799289,356.552487792003,356.552487792003,356.552487792003,356.552487792003,356.552487792003,356.552487792003,356.552487792003,356.552487792003,356.552487792003,5,2.61331079099909,356.552487792003,359.654627791999,359.654627791999,359.654627791999,199.5,"['return']","[4.645491542003583]",NA,NA,"",NA,992,"2022-11-28_09h40.15.205","recognition","2022.2.4",59.9000269749823,NA,1
"56","5.80886038773308","71.8991596638655","251.89915966386602","low","332.99199674903","maps/google_map_1.png","8.907162914835391","objects/1/1_29.jpg","0.0","outdoors","WateringCan_Antique.jpg","old",0,35,35,35,0,0,0,0,NA,NA,"",NA,NA,NA,"",NA,NA,NA,"",NA,NA,NA,"",NA,370.006014042003,364.574031167002,364.574031167002,364.574031167002,364.574031167002,364.574031167002,"left",2.31947899999795,367.191123000004,367.191123000004,367.191123000004,367.191123000004,367.191123000004,367.191123000004,367.191123000004,367.191123000004,367.191123000004,6,2.79233416599163,370.477924625004,370.477924625004,370.477924625004,370.477924625004,137.5,"['return']","[7.951252416001807]",NA,NA,"",NA,992,"2022-11-28_09h40.15.205","recognition","2022.2.4",59.9000269749823,NA,1
"58","None","None","None","None","None","maps/google_map_1.png","None","objects/2/2_23.jpg","None","indoors","KitchenCloth.jpg","new",0,36,36,36,NA,NA,NA,NA,NA,NA,"",NA,NA,NA,"",NA,NA,NA,"",NA,NA,NA,"",NA,382.172910458998,378.689258709004,378.689258709004,378.689258709004,378.689258709004,378.689258709004,"right",2.04819737399521,381.022883625003,381.022883625003,381.022883625003,381.022883625003,381.022883625003,381.022883625003,381.022883625003,381.022883625003,381.022883625003,1,1.13278179099871,382.423026042001,NA,NA,NA,NA,"","",NA,NA,"",NA,992,"2022-11-28_09h40.15.205","recognition","2022.2.4",59.9000269749823,NA,0
"59","None","None","None","None","None","maps/google_map_1.png","None","objects/2/2_76.jpg","None","outdoors","Fence_Wooden.jpg","new",0,37,37,37,NA,NA,NA,NA,NA,NA,"",NA,NA,NA,"",NA,NA,NA,"",NA,NA,NA,"",NA,384.689369667001,382.672454375002,382.672454375002,382.672454375002,382.672454375002,382.672454375002,"right",1.07020416599698,384.038442584002,384.038442584002,384.038442584002,384.038442584002,384.038442584002,384.038442584002,384.038442584002,384.038442584002,384.038442584002,1,0.62208237399318,384.939294625001,NA,NA,NA,NA,"","",NA,NA,"",NA,992,"2022-11-28_09h40.15.205","recognition","2022.2.4",59.9000269749823,NA,0
"60","None","None","None","None","None","maps/google_map_1.png","None","objects/2/2_130.jpg","None","indoors","Monitor.jpg","new",0,38,38,38,NA,NA,NA,NA,NA,NA,"",NA,NA,NA,"",NA,NA,NA,"",NA,NA,NA,"",NA,387.006023458998,385.189037249998,385.189037249998,385.189037249998,385.189037249998,385.189037249998,"right",0.973338333002175,386.454427791999,386.454427791999,386.454427791999,386.454427791999,386.454427791999,386.454427791999,386.454427791999,386.454427791999,386.454427791999,1,0.53426658299577,387.256462417005,NA,NA,NA,NA,"","",NA,NA,"",NA,992,"2022-11-28_09h40.15.205","recognition","2022.2.4",59.9000269749823,NA,0
"61","4.59030204690321","148.319327731092","328.319327731092","high","263.13833389891005","maps/google_map_1.png","155.180993832182","objects/1/1_10.jpg","0.0","indoors","Playdoh.jpg","old",0,39,39,39,0,0,0,0,NA,NA,"",NA,NA,NA,"",NA,NA,NA,"",NA,NA,NA,"",NA,446.240276417004,387.506458750002,387.506458750002,387.506458750002,387.506458750002,387.506458750002,"left",51.7182102490042,439.524986375,439.524986375,439.524986375,439.524986375,439.524986375,439.524986375,439.524986375,439.524986375,439.524986375,5,6.698373291998,446.704016542004,446.704016542004,446.704016542004,446.704016542004,36,"['return']","[3.6586127079935977]",NA,NA,"",NA,992,"2022-11-28_09h40.15.205","recognition","2022.2.4",59.9000269749823,NA,1
"63","0.63243641477725","148.319327731092","328.319327731092","low","36.2543167706704","maps/google_map_1.png","22.065010960422","objects/1/1_30.jpg","0.0","outdoors","Boat_Ferry.jpg","old",0,40,40,40,0,0,0,0,NA,NA,"",NA,NA,NA,"",NA,NA,NA,"",NA,NA,NA,"",NA,453.989640042004,450.625303209003,450.625303209003,450.625303209003,450.625303209003,450.625303209003,"left",1.52083849900373,452.440910417004,452.440910417004,452.440910417004,452.440910417004,452.440910417004,452.440910417004,452.440910417004,452.440910417004,452.440910417004,6,1.52313316599611,454.453275250002,454.453275250002,454.453275250002,454.453275250002,34.5,"['return']","[3.4133568329925765]",NA,NA,"",NA,992,"2022-11-28_09h40.15.205","recognition","2022.2.4",59.9000269749823,NA,1
"65","1.56623002974933","148.319327731092","328.319327731092","low","89.7838870556942","maps/google_map_1.png","31.464559324601804","objects/1/1_58.jpg","0.0","indoors","Candle_ChristmasDecor.jpg","old",0,41,41,41,0,0,0,0,NA,NA,"",NA,NA,NA,"",NA,NA,NA,"",NA,NA,NA,"",NA,462.457154917,458.140726416997,458.140726416997,458.140726416997,458.140726416997,458.140726416997,"left",2.46233895800106,460.891042374999,460.891042374999,460.891042374999,460.891042374999,460.891042374999,460.891042374999,460.891042374999,460.891042374999,460.891042374999,6,1.54822458299896,462.919386000001,462.919386000001,462.919386000001,462.919386000001,115.5,"['return']","[3.027435083000455]",NA,NA,"",NA,992,"2022-11-28_09h40.15.205","recognition","2022.2.4",59.9000269749823,NA,1
"67","4.73222760742324","148.319327731092","328.319327731092","high","271.27419405611","maps/google_map_1.png","147.045133674983","objects/1/1_37.jpg","0.0","indoors","Cassette_Audio.jpg","old",0,42,42,42,0,0,0,0,NA,NA,"",NA,NA,NA,"",NA,NA,NA,"",NA,NA,NA,"",NA,470.174360083998,466.208066749998,466.208066749998,466.208066749998,466.208066749998,466.208066749998,"left",2.05814191600075,468.556342249998,468.556342249998,468.556342249998,468.556342249998,468.556342249998,468.556342249998,468.556342249998,468.556342249998,468.556342249998,6,1.59882208299678,470.636639042001,470.636639042001,470.636639042001,470.636639042001,236.5,"['return']","[7.255417332999059]",NA,NA,"",NA,992,"2022-11-28_09h40.15.205","recognition","2022.2.4",59.9000269749823,NA,1
"69","None","None","None","None","None","maps/google_map_1.png","None","objects/2/2_40.jpg","None","indoors","Toy_Boat.jpg","new",0,43,43,43,NA,NA,NA,NA,NA,NA,"",NA,NA,NA,"",NA,NA,NA,"",NA,NA,NA,"",NA,480.990674000001,478.158100125002,478.158100125002,478.158100125002,478.158100125002,478.158100125002,"right",1.58612958299636,480.041396875,480.041396875,480.041396875,480.041396875,480.041396875,480.041396875,480.041396875,480.041396875,480.041396875,1,0.931304500001715,481.241113875003,NA,NA,NA,NA,"","",NA,NA,"",NA,992,"2022-11-28_09h40.15.205","recognition","2022.2.4",59.9000269749823,NA,0
"70","4.9420248096043204","148.319327731092","328.319327731092","high","283.300785263942","maps/google_map_1.png","135.01854246715098","objects/1/1_1.jpg","0.0","indoors","Mat_Door.jpg","old",0,44,44,44,0,0,0,0,NA,NA,"",NA,NA,NA,"",NA,NA,NA,"",NA,NA,NA,"",NA,484.524512292002,481.490599417004,481.490599417004,481.490599417004,481.490599417004,481.490599417004,"left",1.63352591700095,483.424633625,483.424633625,483.424633625,483.424633625,483.424633625,483.424633625,483.424633625,483.424633625,483.424633625,6,1.06708208299824,484.985485334,484.985485334,484.985485334,484.985485334,318,"['return']","[4.354310915994574]",NA,NA,"",NA,992,"2022-11-28_09h40.15.205","recognition","2022.2.4",59.9000269749823,NA,1
"72","1.90628257275586","148.319327731092","328.319327731092","medium","109.277344935049","maps/google_map_1.png","50.9580172039569","objects/1/1_103.jpg","0.0","outdoors","Door_Green.jpg","old",0,45,45,45,0,0,0,0,NA,NA,"",NA,NA,NA,"",NA,NA,NA,"",NA,NA,NA,"",NA,492.708238209001,489.609378334004,489.609378334004,489.609378334004,489.609378334004,489.609378334004,"left",1.64633599999797,491.540139709003,491.540139709003,491.540139709003,491.540139709003,491.540139709003,491.540139709003,491.540139709003,491.540139709003,491.540139709003,6,1.13897987499513,491.540139709003,493.169369542004,493.169369542004,493.169369542004,119.5,"['return']","[3.74604541699955]",NA,NA,"",NA,992,"2022-11-28_09h40.15.205","recognition","2022.2.4",59.9000269749823,NA,1
"74","2.7836651042047103","71.8991596638655","251.89915966386602","high","159.57315883976102","maps/google_map_1.png","177.673999175895","objects/1/1_47.jpg","0.0","outdoors","Caribou.jpg","old",0,46,46,46,0,0,0,0,NA,NA,"",NA,NA,NA,"",NA,NA,NA,"",NA,NA,NA,"",NA,500.891438999999,497.175817916999,497.175817916999,497.175817916999,497.175817916999,497.175817916999,"left",2.09896595800092,499.557950250004,499.557950250004,499.557950250004,499.557950250004,499.557950250004,499.557950250004,499.557950250004,499.557950250004,499.557950250004,6,1.30243529199652,501.353580916999,501.353580916999,501.353580916999,501.353580916999,179.5,"['return']","[2.9049720830007573]",NA,NA,"",NA,992,"2022-11-28_09h40.15.205","recognition","2022.2.4",59.9000269749823,NA,1
"76","1.2067722618552401","148.319327731092","328.319327731092","low","69.1780277496632","maps/google_map_1.png","10.8587000185708","objects/1/1_24.jpg","0.0","indoors","Box_FirstAid.jpg","old",0,47,47,47,0,0,0,0,NA,NA,"",NA,NA,NA,"",NA,NA,NA,"",NA,NA,NA,"",NA,507.407785834002,504.524584874998,504.524584874998,504.524584874998,504.524584874998,504.524584874998,"left",1.26993691700045,506.089514167004,506.089514167004,506.089514167004,506.089514167004,506.089514167004,506.089514167004,506.089514167004,506.089514167004,506.089514167004,6,1.29488883299928,507.876434459002,507.876434459002,507.876434459002,507.876434459002,132,"['return']","[2.7315759579942096]",NA,NA,"",NA,992,"2022-11-28_09h40.15.205","recognition","2022.2.4",59.9000269749823,NA,1
"78","0.48605298537194497","71.8991596638655","251.89915966386602","medium","27.862909989474502","maps/google_map_1.png","45.963750325609","objects/1/1_39.jpg","0.0","outdoors","SpiderWeb.jpg","old",0,48,48,48,0,0,0,0,NA,NA,"",NA,NA,NA,"",NA,NA,NA,"",NA,NA,NA,"",NA,514.857575667003,510.876243250001,510.876243250001,510.876243250001,510.876243250001,510.876243250001,"left",2.8849676250029,514.057141042002,514.057141042002,514.057141042002,514.057141042002,514.057141042002,514.057141042002,514.057141042002,514.057141042002,514.057141042002,6,0.778265417000512,514.057141042002,515.320547542004,515.320547542004,515.320547542004,39.5,"['return']","[2.7553370829991763]",NA,NA,"",NA,992,"2022-11-28_09h40.15.205","recognition","2022.2.4",59.9000269749823,NA,1
"80","None","None","None","None","None","maps/google_map_1.png","None","objects/2/2_57.jpg","None","outdoors","Steeple.jpg","new",0,49,49,49,NA,NA,NA,NA,NA,NA,"",NA,NA,NA,"",NA,NA,NA,"",NA,NA,NA,"",NA,522.857781459003,518.341814625004,518.341814625004,518.341814625004,518.341814625004,518.341814625004,"right",2.70296291599516,521.341097709002,521.341097709002,521.341097709002,521.341097709002,521.341097709002,521.341097709002,521.341097709002,521.341097709002,521.341097709002,1,1.50033445800364,523.108437667004,NA,NA,NA,NA,"","",NA,NA,"",NA,992,"2022-11-28_09h40.15.205","recognition","2022.2.4",59.9000269749823,NA,0
"81","None","None","None","None","None","maps/google_map_1.png","None","objects/2/2_29.jpg","None","indoors","Tape_Scotch.jpg","new",0,50,50,50,NA,NA,NA,NA,NA,NA,"",NA,NA,NA,"",NA,NA,NA,"",NA,NA,NA,"",NA,525.258473499998,523.357780124999,523.357780124999,523.357780124999,523.357780124999,523.357780124999,"right",1.11772149999888,524.775891541998,524.775891541998,524.775891541998,524.775891541998,524.775891541998,524.775891541998,524.775891541998,524.775891541998,524.775891541998,1,0.456249167000351,524.775891541998,NA,NA,NA,NA,"","",NA,NA,"",NA,992,"2022-11-28_09h40.15.205","recognition","2022.2.4",59.9000269749823,NA,0
"82","2.1438934625023203","71.8991596638655","251.89915966386602","high","122.898351353636","maps/google_map_1.png","140.999191689771","objects/1/1_7.jpg","0.0","outdoors","Hottub.jpg","old",0,51,51,51,0,0,0,0,NA,NA,"",NA,NA,NA,"",NA,NA,NA,"",NA,NA,NA,"",NA,528.791926083999,525.758730875001,525.758730875001,525.758730875001,525.758730875001,525.758730875001,"left",1.26503791600408,527.307104125,527.307104125,527.307104125,527.307104125,527.307104125,527.307104125,527.307104125,527.307104125,527.307104125,6,1.45156783299899,529.253815959004,529.253815959004,529.253815959004,529.253815959004,150,"['return']","[4.982766000000993]",NA,NA,"",NA,992,"2022-11-28_09h40.15.205","recognition","2022.2.4",59.9000269749823,NA,1
"84","2.96452941176471","58.3193277310925","139.773109243697","singletons","169.941176470588","maps/google_map_1.png","None","objects/1/1_94.jpg","0.0","indoors","Toy_BlocksLetter.jpg","old",0,52,52,52,0,0,0,0,NA,NA,"",NA,NA,NA,"",NA,NA,NA,"",NA,NA,NA,"",NA,536.908083834001,534.509772500001,534.509772500001,534.509772500001,534.509772500001,534.509772500001,"left",1.49734904099751,536.291931250002,536.291931250002,536.291931250002,536.291931250002,536.291931250002,536.291931250002,536.291931250002,536.291931250002,536.291931250002,6,0.588254791997315,537.371224791998,537.371224791998,537.371224791998,537.371224791998,233,"['return']","[3.2069008329999633]",NA,NA,"",NA,992,"2022-11-28_09h40.15.205","recognition","2022.2.4",59.9000269749823,NA,1
"86","6.06383294252329","71.8991596638655","251.89915966386602","low","347.608257851653","maps/google_map_1.png","5.7090981877878795","objects/1/1_104.jpg","0.0","indoors","Pitcher.jpg","old",0,53,53,53,0,0,0,0,NA,NA,"",NA,NA,NA,"",NA,NA,NA,"",NA,NA,NA,"",NA,543.825232625,540.843702167003,540.843702167003,540.843702167003,540.843702167003,540.843702167003,"left",1.29911362400162,542.443028583999,542.443028583999,542.443028583999,542.443028583999,542.443028583999,542.443028583999,542.443028583999,542.443028583999,542.443028583999,6,1.35001620799449,544.286485791999,544.286485791999,544.286485791999,544.286485791999,22,"['return']","[2.848672332998831]",NA,NA,"",NA,992,"2022-11-28_09h40.15.205","recognition","2022.2.4",59.9000269749823,NA,1
"88","3.74303809754345","148.319327731092","328.319327731092","high","214.569062916503","maps/google_map_1.png","156.249735185411","objects/1/1_16.jpg","0.0","indoors","Mask_Ski.jpg","old",0,54,54,54,0,0,0,0,NA,NA,"",NA,NA,NA,"",NA,NA,NA,"",NA,NA,NA,"",NA,555.325152124999,547.409526875002,547.409526875002,547.409526875002,547.409526875002,547.409526875002,"left",5.94905933299742,553.642984042002,553.642984042002,553.642984042002,553.642984042002,553.642984042002,553.642984042002,553.642984042002,553.642984042002,553.642984042002,6,1.65565412399883,555.788724833998,555.788724833998,555.788724833998,555.788724833998,224.5,"['return']","[2.744857874997251]",NA,NA,"",NA,992,"2022-11-28_09h40.15.205","recognition","2022.2.4",59.9000269749823,NA,1
"90","None","None","None","None","None","maps/google_map_1.png","None","objects/2/2_110.jpg","None","indoors","Flute_Wooden.jpg","new",0,55,55,55,NA,NA,NA,NA,NA,NA,"",NA,NA,NA,"",NA,NA,NA,"",NA,NA,NA,"",NA,562.909222209004,558.792110417002,558.792110417002,558.792110417002,558.792110417002,558.792110417002,"right",2.70807370799594,561.792315833998,561.792315833998,561.792315833998,561.792315833998,561.792315833998,561.792315833998,561.792315833998,561.792315833998,561.792315833998,1,1.09075866599596,563.158887666999,NA,NA,NA,NA,"","",NA,NA,"",NA,992,"2022-11-28_09h40.15.205","recognition","2022.2.4",59.9000269749823,NA,0
"91","5.99860062387725","71.8991596638655","251.89915966386602","low","343.86882557258104","maps/google_map_1.png","1.96966590871582","objects/1/1_13.jpg","0.0","indoors","Bagel.jpg","old",0,56,56,56,0,0,0,0,NA,NA,"",NA,NA,NA,"",NA,NA,NA,"",NA,NA,NA,"",NA,566.559574291998,563.410173042001,563.410173042001,563.410173042001,563.410173042001,563.410173042001,"left",2.06573616599781,565.759196416999,565.759196416999,565.759196416999,565.759196416999,565.759196416999,565.759196416999,565.759196416999,565.759196416999,565.759196416999,6,0.781353208003566,567.022384084004,567.022384084004,567.022384084004,567.022384084004,303,"['return']","[5.734984499998973]",NA,NA,"",NA,992,"2022-11-28_09h40.15.205","recognition","2022.2.4",59.9000269749823,NA,1
"93","None","None","None","None","None","maps/google_map_1.png","None","objects/2/2_136.jpg","None","outdoors","WaterWell.jpg","new",0,57,57,57,NA,NA,NA,NA,NA,NA,"",NA,NA,NA,"",NA,NA,NA,"",NA,NA,NA,"",NA,576.208128416998,573.028351499997,573.028351499997,573.028351499997,573.028351499997,573.028351499997,"right",1.28227129099832,574.608060125,574.608060125,574.608060125,574.608060125,574.608060125,574.608060125,574.608060125,574.608060125,574.608060125,1,1.58415275000152,576.459279041999,NA,NA,NA,NA,"","",NA,NA,"",NA,992,"2022-11-28_09h40.15.205","recognition","2022.2.4",59.9000269749823,NA,0
"94","None","None","None","None","None","maps/google_map_1.png","None","objects/2/2_43.jpg","None","outdoors","Butterfly.jpg","new",0,58,58,58,NA,NA,NA,NA,NA,NA,"",NA,NA,NA,"",NA,NA,NA,"",NA,NA,NA,"",NA,579.991690374998,576.708462041999,576.708462041999,576.708462041999,576.708462041999,576.708462041999,"right",2.34853058299632,579.341792749998,579.341792749998,579.341792749998,579.341792749998,579.341792749998,579.341792749998,579.341792749998,579.341792749998,579.341792749998,1,0.629141416000493,580.242401374999,NA,NA,NA,NA,"","",NA,NA,"",NA,992,"2022-11-28_09h40.15.205","recognition","2022.2.4",59.9000269749823,NA,0
"95","1.49098692810458","161.89915966386602","172.95798319327702","singletons","85.47058823529409","maps/google_map_1.png","None","objects/1/1_40.jpg","0.0","outdoors","Dog_SaintBernard.jpg","old",0,59,59,59,0,0,0,0,NA,NA,"",NA,NA,NA,"",NA,NA,NA,"",NA,NA,NA,"",NA,583.026283667001,580.494700667005,580.494700667005,580.494700667005,580.494700667005,580.494700667005,"left",0.831196749997616,581.610711624999,581.610711624999,581.610711624999,581.610711624999,581.610711624999,581.610711624999,581.610711624999,581.610711624999,581.610711624999,6,1.38668129199505,581.610711624999,583.492674499998,583.492674499998,583.492674499998,169,"['return']","[5.832482750003692]",NA,NA,"",NA,992,"2022-11-28_09h40.15.205","recognition","2022.2.4",59.9000269749823,NA,1
"97","2.4140503084802","148.319327731092","328.319327731092","medium","138.385049530712","maps/google_map_1.png","80.06572179961951","objects/1/1_46.jpg","0.0","outdoors","SiloGrain.jpg","old",0,60,60,60,0,0,0,0,NA,NA,"",NA,NA,NA,"",NA,NA,NA,"",NA,NA,NA,"",NA,595.242095542002,589.593321125001,589.593321125001,589.593321125001,589.593321125001,589.593321125001,"left",2.04806183299661,591.924170874998,591.924170874998,591.924170874998,591.924170874998,591.924170874998,591.924170874998,591.924170874998,591.924170874998,591.924170874998,6,3.29122829099651,595.702905917002,595.702905917002,595.702905917002,595.702905917002,225,"['return']","[3.614769249994424]",NA,NA,"",NA,992,"2022-11-28_09h40.15.205","recognition","2022.2.4",59.9000269749823,NA,1
"99","None","None","None","None","None","maps/google_map_1.png","None","objects/2/2_16.jpg","None","indoors","Hockey_Puck.jpg","new",0,61,61,61,NA,NA,NA,NA,NA,NA,"",NA,NA,NA,"",NA,NA,NA,"",NA,NA,NA,"",NA,602.492226584,599.577463166999,599.577463166999,599.577463166999,599.577463166999,599.577463166999,"right",1.14859725000133,601.025381833999,601.025381833999,601.025381833999,601.025381833999,601.025381833999,601.025381833999,601.025381833999,601.025381833999,601.025381833999,1,1.44288362399675,602.742731709004,NA,NA,NA,NA,"","",NA,NA,"",NA,992,"2022-11-28_09h40.15.205","recognition","2022.2.4",59.9000269749823,NA,0
"100","5.477868705184551","71.8991596638655","251.89915966386602","low","314.017951252617","maps/google_map_1.png","27.881208411248103","objects/1/1_128.jpg","0.0","outdoors","DogHouse.jpg","old",0,62,62,62,0,0,0,0,NA,NA,"",NA,NA,NA,"",NA,NA,NA,"",NA,NA,NA,"",NA,607.409772749998,602.992271875002,602.992271875002,602.992271875002,602.992271875002,602.992271875002,"left",1.45574366700021,604.743070249999,604.743070249999,604.743070249999,604.743070249999,604.743070249999,604.743070249999,604.743070249999,604.743070249999,604.743070249999,6,2.6403507080031,607.875004499998,607.875004499998,607.875004499998,607.875004499998,135.5,"['return']","[2.292351999996754]",NA,NA,"",NA,992,"2022-11-28_09h40.15.205","recognition","2022.2.4",59.9000269749823,NA,1
"102","None","None","None","None","None","maps/google_map_1.png","None","objects/2/2_116.jpg","None","outdoors","House_Rural.jpg","new",0,63,63,63,NA,NA,NA,NA,NA,NA,"",NA,NA,NA,"",NA,NA,NA,"",NA,NA,NA,"",NA,613.509131291998,610.427553709,610.427553709,610.427553709,610.427553709,610.427553709,"right",1.2710801249923,611.994270750001,611.994270750001,611.994270750001,611.994270750001,611.994270750001,611.994270750001,611.994270750001,611.994270750001,611.994270750001,1,1.49862587499956,613.759594249997,NA,NA,NA,NA,"","",NA,NA,"",NA,992,"2022-11-28_09h40.15.205","recognition","2022.2.4",59.9000269749823,NA,0
"103","3.1515995895619704","71.8991596638655","251.89915966386602","high","180.664944624571","maps/google_map_1.png","161.23421503929399","objects/1/1_72.jpg","0.0","indoors","Hat_Party.jpg","old",0,64,64,64,0,0,0,0,NA,NA,"",NA,NA,NA,"",NA,NA,NA,"",NA,NA,NA,"",NA,616.708826792004,614.010277542002,614.010277542002,614.010277542002,614.010277542002,614.010277542002,"left",1.32139537500188,615.625587542003,615.625587542003,615.625587542003,615.625587542003,615.625587542003,615.625587542003,615.625587542003,615.625587542003,615.625587542003,6,1.06724954099627,617.174494209001,617.174494209001,617.174494209001,617.174494209001,225,"['return']","[2.7108785410018754]",NA,NA,"",NA,992,"2022-11-28_09h40.15.205","recognition","2022.2.4",59.9000269749823,NA,1
"105","1.0210732700788","148.319327731092","328.319327731092","low","58.532862615982","maps/google_map_1.png","0.213534884889627","objects/1/1_43.jpg","0.0","indoors","Printer.jpg","old",0,65,65,65,0,0,0,0,NA,NA,"",NA,NA,NA,"",NA,NA,NA,"",NA,NA,NA,"",NA,629.843440208999,620.143145499998,620.143145499998,620.143145499998,620.143145499998,620.143145499998,"left",2.27823587399325,622.708319375,622.708319375,622.708319375,622.708319375,622.708319375,622.708319375,622.708319375,622.708319375,622.708319375,6,7.10232804100087,630.306868334003,630.306868334003,630.306868334003,630.306868334003,25.5,"['return']","[4.477171291000559]",NA,NA,"",NA,992,"2022-11-28_09h40.15.205","recognition","2022.2.4",59.9000269749823,NA,1
"107","0.9304638738147909","148.319327731092","328.319327731092","low","53.3386934033957","maps/google_map_1.png","4.98063432769676","objects/1/1_141.jpg","0.0","outdoors","Caterpillar.jpg","old",0,66,66,66,0,0,0,0,NA,NA,"",NA,NA,NA,"",NA,NA,NA,"",NA,NA,NA,"",NA,639.5435,635.043756375002,635.043756375002,635.043756375002,635.043756375002,635.043756375002,"left",3.14716983299877,638.475844125001,638.475844125001,638.475844125001,638.475844125001,638.475844125001,638.475844125001,638.475844125001,638.475844125001,638.475844125001,6,1.04898654099816,640.007370416999,640.007370416999,640.007370416999,640.007370416999,49.5,"['return']","[3.323679458000697]",NA,NA,"",NA,992,"2022-11-28_09h40.15.205","recognition","2022.2.4",59.9000269749823,NA,1
"109","None","None","None","None","None","maps/google_map_1.png","None","objects/2/2_86.jpg","None","outdoors","GoldNugget.jpg","new",0,67,67,67,NA,NA,NA,NA,NA,NA,"",NA,NA,NA,"",NA,NA,NA,"",NA,NA,NA,"",NA,645.626710834003,643.594368416998,643.594368416998,643.594368416998,643.594368416998,643.594368416998,"right",1.05339541699504,644.943985584003,644.943985584003,644.943985584003,644.943985584003,644.943985584003,644.943985584003,644.943985584003,644.943985584003,644.943985584003,1,0.664791333001631,645.876818709003,NA,NA,NA,NA,"","",NA,NA,"",NA,992,"2022-11-28_09h40.15.205","recognition","2022.2.4",59.9000269749823,NA,0
"110","None","None","None","None","None","maps/google_map_1.png","None","objects/2/2_19.jpg","None","outdoors","Goat.jpg","new",0,68,68,68,NA,NA,NA,NA,NA,NA,"",NA,NA,NA,"",NA,NA,NA,"",NA,NA,NA,"",NA,655.726362709,646.126507041998,646.126507041998,646.126507041998,646.126507041998,646.126507041998,"left",6.26177379100409,652.674988750005,652.674988750005,652.674988750005,652.674988750005,652.674988750005,652.674988750005,652.674988750005,652.674988750005,652.674988750005,5,3.03021633299795,655.977020375001,NA,NA,NA,NA,"","",NA,NA,"",NA,992,"2022-11-28_09h40.15.205","recognition","2022.2.4",59.9000269749823,NA,0
"111","3.20556994268232","148.319327731092","328.319327731092","medium","183.75878652319","maps/google_map_1.png","125.43945879209801","objects/1/1_62.jpg","0.0","outdoors","Seashell_AlternateTellin.jpg","old",0,69,69,69,0,0,0,0,NA,NA,"",NA,NA,NA,"",NA,NA,NA,"",NA,NA,NA,"",NA,661.810025416999,656.226459625002,656.226459625002,656.226459625002,656.226459625002,656.226459625002,"left",3.50925983300112,660.027702708998,660.027702708998,660.027702708998,660.027702708998,660.027702708998,660.027702708998,660.027702708998,660.027702708998,660.027702708998,6,1.75603079099528,662.275299542001,662.275299542001,662.275299542001,662.275299542001,206.5,"['return']","[3.899555208001402]",NA,NA,"",NA,992,"2022-11-28_09h40.15.205","recognition","2022.2.4",59.9000269749823,NA,1
"113","None","None","None","None","None","maps/google_map_1.png","None","objects/2/2_35.jpg","None","indoors","Hotdog_Weiner.jpg","new",0,70,70,70,NA,NA,NA,NA,NA,NA,"",NA,NA,NA,"",NA,NA,NA,"",NA,NA,NA,"",NA,674.209752791998,666.444749417002,666.444749417002,666.444749417002,666.444749417002,666.444749417002,"right",5.22632712499762,671.958149709004,671.958149709004,671.958149709004,671.958149709004,671.958149709004,671.958149709004,671.958149709004,671.958149709004,671.958149709004,1,2.23093620799773,674.4608075,NA,NA,NA,NA,"","",NA,NA,"",NA,992,"2022-11-28_09h40.15.205","recognition","2022.2.4",59.9000269749823,NA,0
"114","None","None","None","None","None","maps/google_map_1.png","None","objects/2/2_88.jpg","None","indoors","Puzzle_Piece.jpg","new",0,71,71,71,NA,NA,NA,NA,NA,NA,"",NA,NA,NA,"",NA,NA,NA,"",NA,NA,NA,"",NA,676.643688417003,674.709872584004,674.709872584004,674.709872584004,674.709872584004,674.709872584004,"right",1.14917704099207,676.142823250004,676.142823250004,676.142823250004,676.142823250004,676.142823250004,676.142823250004,676.142823250004,676.142823250004,676.142823250004,1,0.472852208004042,676.894060416998,NA,NA,NA,NA,"","",NA,NA,"",NA,992,"2022-11-28_09h40.15.205","recognition","2022.2.4",59.9000269749823,NA,0
"115","None","None","None","None","None","maps/google_map_1.png","None","objects/2/2_94.jpg","None","outdoors","Playground.jpg","new",0,72,72,72,NA,NA,NA,NA,NA,NA,"",NA,NA,NA,"",NA,NA,NA,"",NA,NA,NA,"",NA,679.527351959005,677.143539959005,677.143539959005,677.143539959005,677.143539959005,677.143539959005,"right",1.43061941599444,678.860869249998,678.860869249998,678.860869249998,678.860869249998,678.860869249998,678.860869249998,678.860869249998,678.860869249998,678.860869249998,1,0.642991832995904,679.777542249998,NA,NA,NA,NA,"","",NA,NA,"",NA,992,"2022-11-28_09h40.15.205","recognition","2022.2.4",59.9000269749823,NA,0
"116","None","None","None","None","None","maps/google_map_1.png","None","objects/2/2_6.jpg","None","outdoors","Dragonfly.jpg","new",0,73,73,73,NA,NA,NA,NA,NA,NA,"",NA,NA,NA,"",NA,NA,NA,"",NA,NA,NA,"",NA,682.027128417001,680.026736125001,680.026736125001,680.026736125001,680.026736125001,680.026736125001,"right",1.09523004099901,681.409901459003,681.409901459003,681.409901459003,681.409901459003,681.409901459003,681.409901459003,681.409901459003,681.409901459003,681.409901459003,1,0.599377708000247,682.277533209002,NA,NA,NA,NA,"","",NA,NA,"",NA,992,"2022-11-28_09h40.15.205","recognition","2022.2.4",59.9000269749823,NA,0
"117","None","None","None","None","None","maps/google_map_1.png","None","objects/2/2_47.jpg","None","indoors","Handbag.jpg","new",0,74,74,74,NA,NA,NA,NA,NA,NA,"",NA,NA,NA,"",NA,NA,NA,"",NA,NA,NA,"",NA,684.744291875002,682.526955417001,682.526955417001,682.526955417001,682.526955417001,682.526955417001,"right",1.39760191700043,684.209750084003,684.209750084003,684.209750084003,684.209750084003,684.209750084003,684.209750084003,684.209750084003,684.209750084003,684.209750084003,1,0.51319245799823,684.994377499999,NA,NA,NA,NA,"","",NA,NA,"",NA,992,"2022-11-28_09h40.15.205","recognition","2022.2.4",59.9000269749823,NA,0
"118","None","None","None","None","None","maps/google_map_1.png","None","objects/2/2_143.jpg","None","indoors","Heater_ElectricPortable.jpg","new",0,75,75,75,NA,NA,NA,NA,NA,NA,"",NA,NA,NA,"",NA,NA,NA,"",NA,NA,NA,"",NA,686.760935042003,685.244217250001,685.244217250001,685.244217250001,685.244217250001,685.244217250001,"right",0.813882249996823,686.341327834001,686.341327834001,686.341327834001,686.341327834001,686.341327834001,686.341327834001,686.341327834001,686.341327834001,686.341327834001,1,0.392162873999041,687.010731125003,NA,NA,NA,NA,"","",NA,NA,"",NA,992,"2022-11-28_09h40.15.205","recognition","2022.2.4",59.9000269749823,NA,0
"119","None","None","None","None","None","maps/google_map_1.png","None","objects/2/2_44.jpg","None","outdoors","Bicycle_Kids.jpg","new",0,76,76,76,NA,NA,NA,NA,NA,NA,"",NA,NA,NA,"",NA,NA,NA,"",NA,NA,NA,"",NA,689.361210374998,687.260379749998,687.260379749998,687.260379749998,687.260379749998,687.260379749998,"right",1.02308554099727,688.575625834004,688.575625834004,688.575625834004,688.575625834004,688.575625834004,688.575625834004,688.575625834004,688.575625834004,688.575625834004,1,0.757994082996447,689.611114167004,NA,NA,NA,NA,"","",NA,NA,"",NA,992,"2022-11-28_09h40.15.205","recognition","2022.2.4",59.9000269749823,NA,0
"120","5.59613573700786","71.8991596638655","251.89915966386602","low","320.797590019559","maps/google_map_1.png","21.1015696443065","objects/1/1_48.jpg","0.0","outdoors","Toy_Lizard.jpg","old",0,77,77,77,0,0,0,0,NA,NA,"",NA,NA,NA,"",NA,NA,NA,"",NA,NA,NA,"",NA,703.261406500002,689.860240624999,689.860240624999,689.860240624999,689.860240624999,689.860240624999,"left",5.62720275000174,695.775890000004,695.775890000004,695.775890000004,695.775890000004,695.775890000004,695.775890000004,695.775890000004,695.775890000004,695.775890000004,6,7.46712137499708,695.775890000004,703.740410334001,703.740410334001,703.740410334001,229.5,"['return']","[2.6944662909954786]",NA,NA,"",NA,992,"2022-11-28_09h40.15.205","recognition","2022.2.4",59.9000269749823,NA,1
"122","None","None","None","None","None","maps/google_map_1.png","None","objects/2/2_46.jpg","None","outdoors","PlayerFootball.jpg","new",0,78,78,78,NA,NA,NA,NA,NA,NA,"",NA,NA,NA,"",NA,NA,NA,"",NA,NA,NA,"",NA,710.077791417003,706.694498750003,706.694498750003,706.694498750003,706.694498750003,706.694498750003,"right",1.87730083300266,708.858226791999,708.858226791999,708.858226791999,708.858226791999,708.858226791999,708.858226791999,708.858226791999,708.858226791999,708.858226791999,1,1.18750558300235,710.328078375001,NA,NA,NA,NA,"","",NA,NA,"",NA,992,"2022-11-28_09h40.15.205","recognition","2022.2.4",59.9000269749823,NA,0
"123","5.84035167694754","71.8991596638655","251.89915966386602","low","334.797229888712","maps/google_map_1.png","7.10192977515327","objects/1/1_106.jpg","0.0","indoors","PotatoMasher_Grate.jpg","old",0,79,79,79,0,0,0,0,NA,NA,"",NA,NA,NA,"",NA,NA,NA,"",NA,NA,NA,"",NA,716.944841459001,710.576350292002,710.576350292002,710.576350292002,710.576350292002,710.576350292002,"left",3.49842645799799,714.359199084,714.359199084,714.359199084,714.359199084,714.359199084,714.359199084,714.359199084,714.359199084,714.359199084,6,2.55347795800481,717.405531249999,717.405531249999,717.405531249999,717.405531249999,246,"['return']","[3.7161744170007296]",NA,NA,"",NA,992,"2022-11-28_09h40.15.205","recognition","2022.2.4",59.9000269749823,NA,1
"125","1.4472400673955","148.319327731092","328.319327731092","low","82.9628064112068","maps/google_map_1.png","24.643478680114303","objects/1/1_97.jpg","0.0","indoors","LetterMail.jpg","old",0,80,80,80,0,0,0,0,NA,NA,"",NA,NA,NA,"",NA,NA,NA,"",NA,NA,NA,"",NA,724.744559291998,721.395059084003,721.395059084003,721.395059084003,721.395059084003,721.395059084003,"left",1.50968908299546,723.192452584,723.192452584,723.192452584,723.192452584,723.192452584,723.192452584,723.192452584,723.192452584,723.192452584,6,1.52102758299588,723.192452584,725.206913875001,725.206913875001,725.206913875001,162.5,"['return']","[1.9299252909986535]",NA,NA,"",NA,992,"2022-11-28_09h40.15.205","recognition","2022.2.4",59.9000269749823,NA,1
"127","None","None","None","None","None","maps/google_map_1.png","None","objects/2/2_8.jpg","None","outdoors","Sign_OneWay.jpg","new",0,81,81,81,NA,NA,NA,NA,NA,NA,"",NA,NA,NA,"",NA,NA,NA,"",NA,NA,NA,"",NA,729.545076250004,727.394901833999,727.394901833999,727.394901833999,727.394901833999,727.394901833999,"right",1.27498174900393,728.959793583999,728.959793583999,728.959793583999,728.959793583999,728.959793583999,728.959793583999,728.959793583999,728.959793583999,728.959793583999,1,0.556173790995672,729.794714000003,NA,NA,NA,NA,"","",NA,NA,"",NA,992,"2022-11-28_09h40.15.205","recognition","2022.2.4",59.9000269749823,NA,0
"128","3.92754334511961","148.319327731092","328.319327731092","high","225.14579685399","maps/google_map_1.png","166.826469122898","objects/1/1_18.jpg","0.0","outdoors","Toy_SeeSaw.jpg","old",0,82,82,82,0,0,0,0,NA,NA,"",NA,NA,NA,"",NA,NA,NA,"",NA,NA,NA,"",NA,732.977577209,730.044297667002,730.044297667002,730.044297667002,730.044297667002,730.044297667002,"left",1.30008916600491,731.625981792,731.625981792,731.625981792,731.625981792,731.625981792,731.625981792,731.625981792,731.625981792,731.625981792,6,1.32024783299858,733.439987083999,733.439987083999,733.439987083999,733.439987083999,221.5,"['return']","[3.6376714579964755]",NA,NA,"",NA,992,"2022-11-28_09h40.15.205","recognition","2022.2.4",59.9000269749823,NA,1
"130","None","None","None","None","None","maps/google_map_1.png","None","objects/2/2_120.jpg","None","indoors","Briefcase_Silver.jpg","new",0,83,83,83,NA,NA,NA,NA,NA,NA,"",NA,NA,NA,"",NA,NA,NA,"",NA,NA,NA,"",NA,741.861353875,737.345393292002,737.345393292002,737.345393292002,737.345393292002,737.345393292002,"right",2.65337941599864,740.293257459001,740.293257459001,740.293257459001,740.293257459001,740.293257459001,740.293257459001,740.293257459001,740.293257459001,740.293257459001,1,1.54356058299891,742.111192625001,NA,NA,NA,NA,"","",NA,NA,"",NA,992,"2022-11-28_09h40.15.205","recognition","2022.2.4",59.9000269749823,NA,0
"131","None","None","None","None","None","maps/google_map_1.png","None","objects/2/2_69.jpg","None","outdoors","Statue_Head.jpg","new",0,84,84,84,NA,NA,NA,NA,NA,NA,"",NA,NA,NA,"",NA,NA,NA,"",NA,NA,NA,"",NA,746.478176000004,742.360946459004,742.360946459004,742.360946459004,742.360946459004,742.360946459004,"right",3.01052258300479,745.660783250001,745.660783250001,745.660783250001,745.660783250001,745.660783250001,745.660783250001,745.660783250001,745.660783250001,745.660783250001,1,0.785500792000676,746.728358875,NA,NA,NA,NA,"","",NA,NA,"",NA,992,"2022-11-28_09h40.15.205","recognition","2022.2.4",59.9000269749823,NA,0
"132","5.93195336185991","71.8991596638655","251.89915966386602","low","340.048281890059","maps/google_map_1.png","1.85087777380689","objects/1/1_59.jpg","0.0","indoors","Candy_Toffee.jpg","old",0,85,85,85,0,0,0,0,NA,NA,"",NA,NA,NA,"",NA,NA,NA,"",NA,NA,NA,"",NA,749.595182042001,746.977914542003,746.977914542003,746.977914542003,746.977914542003,746.977914542003,"left",0.902470957997139,748.175889416998,748.175889416998,748.175889416998,748.175889416998,748.175889416998,748.175889416998,748.175889416998,748.175889416998,748.175889416998,6,1.39234824999585,750.05872275,750.05872275,750.05872275,750.05872275,310,"['return']","[2.510489874999621]",NA,NA,"",NA,992,"2022-11-28_09h40.15.205","recognition","2022.2.4",59.9000269749823,NA,1
"134","3.9269260434692597","148.319327731092","328.319327731092","high","225.110410135181","maps/google_map_1.png","166.791082404088","objects/1/1_91.jpg","0.0","indoors","Abacus.jpg","old",0,86,86,86,0,0,0,0,NA,NA,"",NA,NA,NA,"",NA,NA,NA,"",NA,NA,NA,"",NA,760.028302250001,752.82944275,752.82944275,752.82944275,752.82944275,752.82944275,"left",2.46809745799692,755.594037709001,755.594037709001,755.594037709001,755.594037709001,755.594037709001,755.594037709001,755.594037709001,755.594037709001,755.594037709001,6,4.41705075000209,760.489066374997,760.489066374997,760.489066374997,760.489066374997,228.5,"['return']","[3.237409416004084]",NA,NA,"",NA,992,"2022-11-28_09h40.15.205","recognition","2022.2.4",59.9000269749823,NA,1
"136","None","None","None","None","None","maps/google_map_1.png","None","objects/2/2_89.jpg","None","outdoors","Bird_Duck.jpg","new",0,87,87,87,NA,NA,NA,NA,NA,NA,"",NA,NA,NA,"",NA,NA,NA,"",NA,NA,NA,"",NA,767.329040083998,763.996025542001,763.996025542001,763.996025542001,763.996025542001,763.996025542001,"right",2.16107658300461,766.443763709001,766.443763709001,766.443763709001,766.443763709001,766.443763709001,766.443763709001,766.443763709001,766.443763709001,766.443763709001,1,0.860663125000428,767.578065417001,NA,NA,NA,NA,"","",NA,NA,"",NA,992,"2022-11-28_09h40.15.205","recognition","2022.2.4",59.9000269749823,NA,0
"137","0.48747976771791396","71.8991596638655","251.89915966386602","low","27.944700060262605","maps/google_map_1.png","46.045540396397","objects/1/1_51.jpg","0.0","indoors","Toy_LambPlushie.jpg","old",0,88,88,88,0,0,0,0,NA,NA,"",NA,NA,NA,"",NA,NA,NA,"",NA,NA,NA,"",NA,770.545189459001,767.828333584002,767.828333584002,767.828333584002,767.828333584002,767.828333584002,"left",1.60934162500052,769.727037375,769.727037375,769.727037375,769.727037375,769.727037375,769.727037375,769.727037375,769.727037375,769.727037375,6,0.790943373998743,771.006815459004,771.006815459004,771.006815459004,771.006815459004,32,"['return']","[6.241959498998767]",NA,NA,"",NA,992,"2022-11-28_09h40.15.205","recognition","2022.2.4",59.9000269749823,NA,1
"139","None","None","None","None","None","maps/google_map_1.png","None","objects/2/2_1.jpg","None","indoors","Sieve_SideView.jpg","new",0,89,89,89,NA,NA,NA,NA,NA,NA,"",NA,NA,NA,"",NA,NA,NA,"",NA,NA,NA,"",NA,791.612371125004,777.511750167003,777.511750167003,777.511750167003,777.511750167003,777.511750167003,"left",11.2688284579999,789.077265042004,789.077265042004,789.077265042004,789.077265042004,789.077265042004,789.077265042004,789.077265042004,789.077265042004,789.077265042004,4,2.50684704100422,791.862468291998,NA,NA,NA,NA,"","",NA,NA,"",NA,992,"2022-11-28_09h40.15.205","recognition","2022.2.4",59.9000269749823,NA,0
"140","3.14457938999197","148.319327731092","328.319327731092","medium","180.26251280208803","maps/google_map_1.png","121.943185070995","objects/1/1_44.jpg","0.0","outdoors","Camel_Dromedary.jpg","old",0,90,90,90,0,0,0,0,NA,NA,"",NA,NA,NA,"",NA,NA,NA,"",NA,NA,NA,"",NA,795.679178459002,792.111732625002,792.111732625002,792.111732625002,792.111732625002,792.111732625002,"left",1.575013958005,793.978482792001,793.978482792001,793.978482792001,793.978482792001,793.978482792001,793.978482792001,793.978482792001,793.978482792001,793.978482792001,6,1.6702057079965,796.140935042,796.140935042,796.140935042,796.140935042,137.5,"['return']","[5.906443082996702]",NA,NA,"",NA,992,"2022-11-28_09h40.15.205","recognition","2022.2.4",59.9000269749823,NA,1
"142","None","None","None","None","None","maps/google_map_1.png","None","objects/2/2_68.jpg","None","indoors","KitchenTools.jpg","new",0,91,91,91,NA,NA,NA,NA,NA,NA,"",NA,NA,NA,"",NA,NA,NA,"",NA,NA,NA,"",NA,806.394980792,802.312643249999,802.312643249999,802.312643249999,802.312643249999,802.312643249999,"right",2.19212424999569,804.796806167004,804.796806167004,804.796806167004,804.796806167004,804.796806167004,804.796806167004,804.796806167004,804.796806167004,804.796806167004,1,1.57253791699623,806.646055249999,NA,NA,NA,NA,"","",NA,NA,"",NA,992,"2022-11-28_09h40.15.205","recognition","2022.2.4",59.9000269749823,NA,0
"143","None","None","None","None","None","maps/google_map_1.png","None","objects/2/2_28.jpg","None","outdoors","LawnMower.jpg","new",0,92,92,92,NA,NA,NA,NA,NA,NA,"",NA,NA,NA,"",NA,NA,NA,"",NA,NA,NA,"",NA,810.195319792001,806.894958625002,806.894958625002,806.894958625002,806.894958625002,806.894958625002,"right",2.39971787499962,809.578903499998,809.578903499998,809.578903499998,809.578903499998,809.578903499998,809.578903499998,809.578903499998,809.578903499998,809.578903499998,1,0.598595749994274,810.445729459003,NA,NA,NA,NA,"","",NA,NA,"",NA,992,"2022-11-28_09h40.15.205","recognition","2022.2.4",59.9000269749823,NA,0
"144","None","None","None","None","None","maps/google_map_1.png","None","objects/2/2_101.jpg","None","outdoors","PoliceTape.jpg","new",0,93,93,93,NA,NA,NA,NA,NA,NA,"",NA,NA,NA,"",NA,NA,NA,"",NA,NA,NA,"",NA,812.362207124999,810.696394750004,810.696394750004,810.696394750004,810.696394750004,810.696394750004,"right",0.766625042000669,811.743374625003,811.743374625003,811.743374625003,811.743374625003,811.743374625003,811.743374625003,811.743374625003,811.743374625003,811.743374625003,1,0.595264665993454,812.612852042002,NA,NA,NA,NA,"","",NA,NA,"",NA,992,"2022-11-28_09h40.15.205","recognition","2022.2.4",59.9000269749823,NA,0
"145","2.1151913542011003","71.8991596638655","251.89915966386602","high","121.25300756566799","maps/google_map_1.png","139.353847901802","objects/1/1_50.jpg","0.0","outdoors","GatedEntrance.jpg","old",0,94,94,94,0,0,0,0,NA,NA,"",NA,NA,NA,"",NA,NA,NA,"",NA,NA,NA,"",NA,817.463078542001,812.862823625001,812.862823625001,812.862823625001,812.862823625001,812.862823625001,"left",2.60171216600429,815.764274125002,815.764274125002,815.764274125002,815.764274125002,815.764274125002,815.764274125002,815.764274125002,815.764274125002,815.764274125002,5,1.66550374999497,817.924609875001,817.924609875001,817.924609875001,817.924609875001,222.5,"['return']","[1.6294887499971082]",NA,NA,"",NA,992,"2022-11-28_09h40.15.205","recognition","2022.2.4",59.9000269749823,NA,1
"147","1.10918743929277","148.319327731092","328.319327731092","low","63.5839933352542","maps/google_map_1.png","5.26466560416175","objects/1/1_17.jpg","0.0","indoors","WashingMachine.jpg","old",0,95,95,95,0,0,0,0,NA,NA,"",NA,NA,NA,"",NA,NA,NA,"",NA,NA,NA,"",NA,823.095629249998,819.812640625001,819.812640625001,819.812640625001,819.812640625001,819.812640625001,"left",2.13542179200158,822.243668374998,822.243668374998,822.243668374998,822.243668374998,822.243668374998,822.243668374998,822.243668374998,822.243668374998,822.243668374998,6,0.834178999997675,823.556781833999,823.556781833999,823.556781833999,823.556781833999,39,"['return']","[1.7039421250010491]",NA,NA,"",NA,992,"2022-11-28_09h40.15.205","recognition","2022.2.4",59.9000269749823,NA,1
"149","None","None","None","None","None","maps/google_map_1.png","None","objects/2/2_58.jpg","None","indoors","Fryingpan.jpg","new",0,96,96,96,NA,NA,NA,NA,NA,NA,"",NA,NA,NA,"",NA,NA,NA,"",NA,NA,NA,"",NA,830.545967709004,825.529591167004,825.529591167004,825.529591167004,825.529591167004,825.529591167004,"left",1.32810070799314,827.144736792005,827.144736792005,827.144736792005,827.144736792005,827.144736792005,827.144736792005,827.144736792005,827.144736792005,827.144736792005,1,3.38392749999912,830.796412167001,NA,NA,NA,NA,"","",NA,NA,"",NA,992,"2022-11-28_09h40.15.205","recognition","2022.2.4",59.9000269749823,NA,0
"150","None","None","None","None","None","maps/google_map_1.png","None","objects/2/2_22.jpg","None","outdoors","Hippopotamus.jpg","new",0,97,97,97,NA,NA,NA,NA,NA,NA,"",NA,NA,NA,"",NA,NA,NA,"",NA,NA,NA,"",NA,834.246098959004,831.045595750002,831.045595750002,831.045595750002,831.045595750002,831.045595750002,"right",2.07926987500105,833.411325417001,833.411325417001,833.411325417001,833.411325417001,833.411325417001,833.411325417001,833.411325417001,833.411325417001,833.411325417001,1,0.806944666001073,834.496280917003,NA,NA,NA,NA,"","",NA,NA,"",NA,992,"2022-11-28_09h40.15.205","recognition","2022.2.4",59.9000269749823,NA,0
"151","None","None","None","None","None","maps/google_map_1.png","None","objects/2/2_45.jpg","None","indoors","Crib_Basket.jpg","new",0,98,98,98,NA,NA,NA,NA,NA,NA,"",NA,NA,NA,"",NA,NA,NA,"",NA,NA,NA,"",NA,836.480016250003,834.746793874998,834.746793874998,834.746793874998,834.746793874998,834.746793874998,"right",0.955170749999525,835.994629917004,835.994629917004,835.994629917004,835.994629917004,835.994629917004,835.994629917004,835.994629917004,835.994629917004,835.994629917004,1,0.458685874997173,836.729513416998,NA,NA,NA,NA,"","",NA,NA,"",NA,992,"2022-11-28_09h40.15.205","recognition","2022.2.4",59.9000269749823,NA,0
"152","0.789928852218592","71.8991596638655","251.89915966386602","medium","45.282545668581704","maps/google_map_1.png","63.38338600471621","objects/1/1_36.jpg","0.0","outdoors","Hay.jpg","old",0,99,99,99,0,0,0,0,NA,NA,"",NA,NA,NA,"",NA,NA,NA,"",NA,NA,NA,"",NA,839.162355542001,836.980617583999,836.980617583999,836.980617583999,836.980617583999,836.980617583999,"left",0.955921832995955,838.231421083998,838.231421083998,838.231421083998,838.231421083998,838.231421083998,838.231421083998,838.231421083998,838.231421083998,838.231421083998,6,0.90993416600395,839.626198833997,839.626198833997,839.626198833997,839.626198833997,42.5,"['return']","[1.7137231660017278]",NA,NA,"",NA,992,"2022-11-28_09h40.15.205","recognition","2022.2.4",59.9000269749823,NA,1
"154","None","None","None","None","None","maps/google_map_1.png","None","objects/2/2_72.jpg","None","outdoors","PirateFlag.jpg","new",0,100,100,100,NA,NA,NA,NA,NA,NA,"",NA,NA,NA,"",NA,NA,NA,"",NA,NA,NA,"",NA,843.979094584,841.613799999999,841.613799999999,841.613799999999,841.613799999999,841.613799999999,"right",1.39699849999306,843.294789416999,843.294789416999,843.294789416999,843.294789416999,843.294789416999,843.294789416999,843.294789416999,843.294789416999,843.294789416999,1,0.666097583001829,844.229474459004,NA,NA,NA,NA,"","",NA,NA,"",NA,992,"2022-11-28_09h40.15.205","recognition","2022.2.4",59.9000269749823,NA,0
"155","None","None","None","None","None","maps/google_map_1.png","None","objects/2/2_70.jpg","None","outdoors","Paratrooper.jpg","new",0,101,101,101,NA,NA,NA,NA,NA,NA,"",NA,NA,NA,"",NA,NA,NA,"",NA,NA,NA,"",NA,847.046659250002,844.479464125005,844.479464125005,844.479464125005,844.479464125005,844.479464125005,"right",1.6480673739934,846.412243999999,846.412243999999,846.412243999999,846.412243999999,846.412243999999,846.412243999999,846.412243999999,846.412243999999,846.412243999999,1,0.611787125002593,847.296736249999,NA,NA,NA,NA,"","",NA,NA,"",NA,992,"2022-11-28_09h40.15.205","recognition","2022.2.4",59.9000269749823,NA,0
"156","None","None","None","None","None","maps/google_map_1.png","None","objects/2/2_91.jpg","None","outdoors","PortaPotty.jpg","new",0,102,102,102,NA,NA,NA,NA,NA,NA,"",NA,NA,NA,"",NA,NA,NA,"",NA,NA,NA,"",NA,849.396667000001,847.546001959003,847.546001959003,847.546001959003,847.546001959003,847.546001959003,"right",0.966370332993392,848.795018666999,848.795018666999,848.795018666999,848.795018666999,848.795018666999,848.795018666999,848.795018666999,848.795018666999,848.795018666999,1,0.574830750003457,849.646554334002,NA,NA,NA,NA,"","",NA,NA,"",NA,992,"2022-11-28_09h40.15.205","recognition","2022.2.4",59.9000269749823,NA,0
"157","5.84664382643996","71.8991596638655","251.89915966386602","low","335.157926356431","maps/google_map_1.png","6.741233307434911","objects/1/1_100.jpg","0.0","indoors","Chair_BeanBag.jpg","old",0,103,103,103,0,0,0,0,NA,NA,"",NA,NA,NA,"",NA,NA,NA,"",NA,NA,NA,"",NA,853.246941917001,849.896114084004,849.896114084004,849.896114084004,849.896114084004,849.896114084004,"left",1.17597579100402,851.365870084002,851.365870084002,851.365870084002,851.365870084002,851.365870084002,851.365870084002,851.365870084002,851.365870084002,851.365870084002,6,1.85114625000278,853.711420625004,853.711420625004,853.711420625004,853.711420625004,303,"['return']","[3.5956216659978963]",NA,NA,"",NA,992,"2022-11-28_09h40.15.205","recognition","2022.2.4",59.9000269749823,NA,1
"159","3.24686821143275","71.8991596638655","251.89915966386602","high","186.12620320315102","maps/google_map_1.png","155.772956460714","objects/1/1_137.jpg","0.0","indoors","CigarCase.jpg","old",0,104,104,104,0,0,0,0,NA,NA,"",NA,NA,NA,"",NA,NA,NA,"",NA,NA,NA,"",NA,862.463757792,857.564295625001,857.564295625001,857.564295625001,857.564295625001,857.564295625001,"left",3.63777099999425,861.496545916998,861.496545916998,861.496545916998,861.496545916998,861.496545916998,861.496545916998,861.496545916998,861.496545916998,861.496545916998,6,0.938160666002659,862.924680834003,862.924680834003,862.924680834003,862.924680834003,235.5,"['return']","[3.0782859579921933]",NA,NA,"",NA,992,"2022-11-28_09h40.15.205","recognition","2022.2.4",59.9000269749823,NA,1
"161","None","None","None","None","None","maps/google_map_1.png","None","objects/2/2_5.jpg","None","indoors","Glass_Beer.jpg","new",0,105,105,105,NA,NA,NA,NA,NA,NA,"",NA,NA,NA,"",NA,NA,NA,"",NA,NA,NA,"",NA,870.730022374999,866.263467375,866.263467375,866.263467375,866.263467375,866.263467375,"right",3.30545662399527,869.861013166999,869.861013166999,869.861013166999,869.861013166999,869.861013166999,869.861013166999,869.861013166999,869.861013166999,869.861013166999,1,0.838473749994591,870.980184583997,NA,NA,NA,NA,"","",NA,NA,"",NA,992,"2022-11-28_09h40.15.205","recognition","2022.2.4",59.9000269749823,NA,0
"162","2.3257941663896604","148.319327731092","328.319327731092","medium","133.325780238898","maps/google_map_1.png","75.0064525078051","objects/1/1_23.jpg","0.0","indoors","HairScrunchie.jpg","old",0,106,106,106,0,0,0,0,NA,NA,"",NA,NA,NA,"",NA,NA,NA,"",NA,NA,NA,"",NA,873.146428166998,871.231086917003,871.231086917003,871.231086917003,871.231086917003,871.231086917003,"left",0.900393999996595,872.431633334003,872.431633334003,872.431633334003,872.431633334003,872.431633334003,872.431633334003,872.431633334003,872.431633334003,872.431633334003,6,0.698660457994265,873.610019250002,873.610019250002,873.610019250002,873.610019250002,147.5,"['return']","[3.5957712500021444]",NA,NA,"",NA,992,"2022-11-28_09h40.15.205","recognition","2022.2.4",59.9000269749823,NA,1
"164","None","None","None","None","None","maps/google_map_1.png","None","objects/2/2_82.jpg","None","indoors","Drum_Conga.jpg","new",0,107,107,107,NA,NA,NA,NA,NA,NA,"",NA,NA,NA,"",NA,NA,NA,"",NA,NA,NA,"",NA,884.064027,877.464997458999,877.464997458999,877.464997458999,877.464997458999,877.464997458999,"right",5.08608658299636,882.847302458998,882.847302458998,882.847302458998,882.847302458998,882.847302458998,882.847302458998,882.847302458998,882.847302458998,882.847302458998,1,1.20001329099614,884.313648084004,NA,NA,NA,NA,"","",NA,NA,"",NA,992,"2022-11-28_09h40.15.205","recognition","2022.2.4",59.9000269749823,NA,0
"165","0.691657706209344","148.319327731092","328.319327731092","low","39.6491678718732","maps/google_map_1.png","18.670159859219197","objects/1/1_26.jpg","0.0","indoors","JuiceBox.jpg","old",0,108,108,108,0,0,0,0,NA,NA,"",NA,NA,NA,"",NA,NA,NA,"",NA,NA,NA,"",NA,886.980313334003,884.564454167004,884.564454167004,884.564454167004,884.564454167004,884.564454167004,"left",1.23787124999944,886.095349417003,886.095349417003,886.095349417003,886.095349417003,886.095349417003,886.095349417003,886.095349417003,886.095349417003,886.095349417003,6,0.868459500001336,887.447989583998,887.447989583998,887.447989583998,887.447989583998,58.5,"['return']","[3.0411369999928866]",NA,NA,"",NA,992,"2022-11-28_09h40.15.205","recognition","2022.2.4",59.9000269749823,NA,1
"167","2.23671523458584","148.319327731092","328.319327731092","medium","128.219344657787","maps/google_map_1.png","69.9000169266947","objects/1/1_78.jpg","0.0","indoors","Blueprints.jpg","old",0,109,109,109,0,0,0,0,NA,NA,"",NA,NA,NA,"",NA,NA,NA,"",NA,NA,NA,"",NA,896.014211542002,890.747988916999,890.747988916999,890.747988916999,890.747988916999,890.747988916999,"left",3.43823654099833,894.478565375,894.478565375,894.478565375,894.478565375,894.478565375,894.478565375,894.478565375,894.478565375,894.478565375,6,1.50553995799419,896.473761834,896.473761834,896.473761834,896.473761834,175,"['return']","[1.9591621660001692]",NA,NA,"",NA,992,"2022-11-28_09h40.15.205","recognition","2022.2.4",59.9000269749823,NA,1
"169","None","None","None","None","None","maps/google_map_1.png","None","objects/2/2_102.jpg","None","outdoors","Golf_Club.jpg","new",0,110,110,110,NA,NA,NA,NA,NA,NA,"",NA,NA,NA,"",NA,NA,NA,"",NA,NA,NA,"",NA,900.846483834001,898.697468124999,898.697468124999,898.697468124999,898.697468124999,898.697468124999,"right",1.23216212399711,900.212958875003,900.212958875003,900.212958875003,900.212958875003,900.212958875003,900.212958875003,900.212958875003,900.212958875003,900.212958875003,1,0.609853665999253,901.097286584001,NA,NA,NA,NA,"","",NA,NA,"",NA,992,"2022-11-28_09h40.15.205","recognition","2022.2.4",59.9000269749823,NA,0
"170","None","None","None","None","None","maps/google_map_1.png","None","objects/2/2_36.jpg","None","indoors","Blanket.jpg","new",0,111,111,111,NA,NA,NA,NA,NA,NA,"",NA,NA,NA,"",NA,NA,NA,"",NA,NA,NA,"",NA,903.264362084003,901.346829499998,901.346829499998,901.346829499998,901.346829499998,901.346829499998,"right",1.039486958005,902.679541375001,902.679541375001,902.679541375001,902.679541375001,902.679541375001,902.679541375001,902.679541375001,902.679541375001,902.679541375001,1,0.557180333002179,902.679541375001,NA,NA,NA,NA,"","",NA,NA,"",NA,992,"2022-11-28_09h40.15.205","recognition","2022.2.4",59.9000269749823,NA,0
"171","None","None","None","None","None","maps/google_map_1.png","None","objects/2/2_117.jpg","None","outdoors","BicycleWheelRusty.jpg","new",0,112,112,112,NA,NA,NA,NA,NA,NA,"",NA,NA,NA,"",NA,NA,NA,"",NA,NA,NA,"",NA,906.497762625004,903.764340166999,903.764340166999,903.764340166999,903.764340166999,903.764340166999,"right",1.8051899159982,905.861988750003,905.861988750003,905.861988750003,905.861988750003,905.861988750003,905.861988750003,905.861988750003,905.861988750003,905.861988750003,1,0.613039541000035,905.861988750003,NA,NA,NA,NA,"","",NA,NA,"",NA,992,"2022-11-28_09h40.15.205","recognition","2022.2.4",59.9000269749823,NA,0
"172","None","None","None","None","None","maps/google_map_1.png","None","objects/2/2_55.jpg","None","indoors","Desk_School.jpg","new",0,113,113,113,NA,NA,NA,NA,NA,NA,"",NA,NA,NA,"",NA,NA,NA,"",NA,NA,NA,"",NA,909.180230750004,906.998070667003,906.998070667003,906.998070667003,906.998070667003,906.998070667003,"right",0.916618499999458,908.216501374998,908.216501374998,908.216501374998,908.216501374998,908.216501374998,908.216501374998,908.216501374998,908.216501374998,908.216501374998,1,0.947221624999656,909.430771542,NA,NA,NA,NA,"","",NA,NA,"",NA,992,"2022-11-28_09h40.15.205","recognition","2022.2.4",59.9000269749823,NA,0
"173","None","None","None","None","None","maps/google_map_1.png","None","objects/2/2_4.jpg","None","indoors","Boardgame_Chess.jpg","new",0,114,114,114,NA,NA,NA,NA,NA,NA,"",NA,NA,NA,"",NA,NA,NA,"",NA,NA,NA,"",NA,912.08093625,909.680475084002,909.680475084002,909.680475084002,909.680475084002,909.680475084002,"right",1.58542941600172,911.562970334002,911.562970334002,911.562970334002,911.562970334002,911.562970334002,911.562970334002,911.562970334002,911.562970334002,911.562970334002,1,0.500904582993826,912.330958958999,NA,NA,NA,NA,"","",NA,NA,"",NA,992,"2022-11-28_09h40.15.205","recognition","2022.2.4",59.9000269749823,NA,0
"174","2.01725210084034","328.319327731092","356.98319327731105","singletons","115.638655462185","maps/google_map_1.png","None","objects/1/1_31.jpg","0.0","indoors","Shirt_Tshirt.jpg","old",0,115,115,115,0,0,0,0,NA,NA,"",NA,NA,NA,"",NA,NA,NA,"",NA,NA,NA,"",NA,914.763969667001,912.580581167,912.580581167,912.580581167,912.580581167,912.580581167,"left",1.16491020799731,914.026312167,914.026312167,914.026312167,914.026312167,914.026312167,914.026312167,914.026312167,914.026312167,914.026312167,6,0.712640041994746,914.026312167,915.227426417005,915.227426417005,915.227426417005,57,"['return']","[5.06526812499942]",NA,NA,"",NA,992,"2022-11-28_09h40.15.205","recognition","2022.2.4",59.9000269749823,NA,1
"176","3.46330671199857","148.319327731092","328.319327731092","high","198.533505783358","maps/google_map_1.png","140.214178052265","objects/1/1_142.jpg","0.0","indoors","Ball_Disco.jpg","old",0,116,116,116,0,0,0,0,NA,NA,"",NA,NA,NA,"",NA,NA,NA,"",NA,NA,NA,"",NA,923.614455041999,920.565610541998,920.565610541998,920.565610541998,920.565610541998,920.565610541998,"left",1.34140279200074,922.196258167001,922.196258167001,922.196258167001,922.196258167001,922.196258167001,922.196258167001,922.196258167001,922.196258167001,922.196258167001,6,1.39926504099276,924.079228041999,924.079228041999,924.079228041999,924.079228041999,233.5,"['return']","[2.3570321669976693]",NA,NA,"",NA,992,"2022-11-28_09h40.15.205","recognition","2022.2.4",59.9000269749823,NA,1
"178","0.630978256004724","148.319327731092","328.319327731092","low","36.1707280512262","maps/google_map_1.png","22.148599679866198","objects/1/1_12.jpg","0.0","outdoors","Van.jpg","old",0,117,117,117,0,0,0,0,NA,NA,"",NA,NA,NA,"",NA,NA,NA,"",NA,NA,NA,"",NA,930.847878834,926.697852792,926.697852792,926.697852792,926.697852792,926.697852792,"left",1.96438695799588,928.945040334002,928.945040334002,928.945040334002,928.945040334002,928.945040334002,928.945040334002,928.945040334002,928.945040334002,928.945040334002,6,1.87193054099771,931.310463417001,931.310463417001,931.310463417001,931.310463417001,215,"['return']","[5.884653499997512]",NA,NA,"",NA,992,"2022-11-28_09h40.15.205","recognition","2022.2.4",59.9000269749823,NA,1
"180","5.70597886186679","71.8991596638655","251.89915966386602","low","327.094329661153","maps/google_map_1.png","14.8048300027121","objects/1/1_83.jpg","0.0","indoors","Chair_Office.jpg","old",0,118,118,118,0,0,0,0,NA,NA,"",NA,NA,NA,"",NA,NA,NA,"",NA,NA,NA,"",NA,940.114901834,937.465842083999,937.465842083999,937.465842083999,937.465842083999,937.465842083999,"left",1.72626899999887,939.481089334004,939.481089334004,939.481089334004,939.481089334004,939.481089334004,939.481089334004,939.481089334004,939.481089334004,939.481089334004,6,0.608865916001378,937.465842083999,940.577462417001,940.577462417001,940.577462417001,38.5,"['return']","[2.1912997489998816]",NA,NA,"",NA,992,"2022-11-28_09h40.15.205","recognition","2022.2.4",59.9000269749823,NA,1
"182","None","None","None","None","None","maps/google_map_1.png","None","objects/2/2_37.jpg","None","indoors","Bowl_Sugar.jpg","new",0,119,119,119,NA,NA,NA,NA,NA,NA,"",NA,NA,NA,"",NA,NA,NA,"",NA,NA,NA,"",NA,947.281648875003,943.031020709001,943.031020709001,943.031020709001,943.031020709001,943.031020709001,"left",0.647869874002936,943.962956374999,943.962956374999,943.962956374999,943.962956374999,943.962956374999,943.962956374999,943.962956374999,943.962956374999,943.962956374999,1,3.29420233299606,943.962956374999,NA,NA,NA,NA,"","",NA,NA,"",NA,992,"2022-11-28_09h40.15.205","recognition","2022.2.4",59.9000269749823,NA,0
"183","5.4315788274337","71.8991596638655","251.89915966386602","low","311.36439138155","maps/google_map_1.png","30.534768282315998","objects/1/1_108.jpg","0.0","outdoors","Ambulance.jpg","old",0,120,120,120,0,0,0,0,NA,NA,"",NA,NA,NA,"",NA,NA,NA,"",NA,NA,NA,"",NA,951.531719416998,947.780672624998,947.780672624998,947.780672624998,947.780672624998,947.780672624998,"left",1.34853154099983,949.413984584004,949.413984584004,949.413984584004,949.413984584004,949.413984584004,949.413984584004,949.413984584004,949.413984584004,949.413984584004,6,2.08599187399523,951.993353500002,951.993353500002,951.993353500002,951.993353500002,236.5,"['return']","[2.45881370799907]",NA,NA,"",NA,992,"2022-11-28_09h40.15.205","recognition","2022.2.4",59.9000269749823,NA,1
"185","None","None","None","None","None","maps/google_map_1.png","None","objects/2/2_118.jpg","None","outdoors","Teardrop.jpg","new",0,121,121,121,NA,NA,NA,NA,NA,NA,"",NA,NA,NA,"",NA,NA,NA,"",NA,NA,NA,"",NA,958.348283667001,954.729352167,954.729352167,954.729352167,954.729352167,954.729352167,"right",1.35243583300326,956.365301375001,956.365301375001,956.365301375001,956.365301375001,956.365301375001,956.365301375001,956.365301375001,956.365301375001,956.365301375001,1,1.95944229100132,958.598359750002,NA,NA,NA,NA,"","",NA,NA,"",NA,992,"2022-11-28_09h40.15.205","recognition","2022.2.4",59.9000269749823,NA,0
"186","None","None","None","None","None","maps/google_map_1.png","None","objects/2/2_114.jpg","None","indoors","Piano_Keyboard.jpg","new",0,122,122,122,NA,NA,NA,NA,NA,NA,"",NA,NA,NA,"",NA,NA,NA,"",NA,NA,NA,"",NA,960.480595583998,958.84835375,958.84835375,958.84835375,958.84835375,958.84835375,"right",0.952295040995523,960.097390125004,960.097390125004,960.097390125004,960.097390125004,960.097390125004,960.097390125004,960.097390125004,960.097390125004,960.097390125004,1,0.366755040995486,960.731576416998,NA,NA,NA,NA,"","",NA,NA,"",NA,992,"2022-11-28_09h40.15.205","recognition","2022.2.4",59.9000269749823,NA,0
"187","1.2275583630745","148.319327731092","328.319327731092","low","70.36958769216851","maps/google_map_1.png","12.0502599610761","objects/1/1_122.jpg","0.0","indoors","Egg_Cup.jpg","old",0,123,123,123,0,0,0,0,NA,NA,"",NA,NA,NA,"",NA,NA,NA,"",NA,NA,NA,"",NA,962.897399166999,960.981761374998,960.981761374998,960.981761374998,960.981761374998,960.981761374998,"left",1.07541512499301,962.347487334002,962.347487334002,962.347487334002,962.347487334002,962.347487334002,962.347487334002,962.347487334002,962.347487334002,962.347487334002,6,0.525294165992818,963.364937416998,963.364937416998,963.364937416998,963.364937416998,36.5,"['return']","[3.163228416000493]",NA,NA,"",NA,992,"2022-11-28_09h40.15.205","recognition","2022.2.4",59.9000269749823,NA,1
"189","1.61091051948466","148.319327731092","328.319327731092","low","92.34518901504428","maps/google_map_1.png","34.0258612839519","objects/1/1_115.jpg","0.0","indoors","Bottle_CosmeticSpray.jpg","old",0,124,124,124,0,0,0,0,NA,NA,"",NA,NA,NA,"",NA,NA,NA,"",NA,NA,NA,"",NA,971.248348041998,966.798245167003,966.798245167003,966.798245167003,966.798245167003,966.798245167003,"left",1.38165608300187,968.463230292,968.463230292,968.463230292,968.463230292,968.463230292,968.463230292,968.463230292,968.463230292,968.463230292,6,2.76637037500041,971.709293583997,971.709293583997,971.709293583997,971.709293583997,53,"['return']","[1.6046711250019143]",NA,NA,"",NA,992,"2022-11-28_09h40.15.205","recognition","2022.2.4",59.9000269749823,NA,1
"191","None","None","None","None","None","maps/google_map_1.png","None","objects/2/2_103.jpg","None","outdoors","Hedgehog.jpg","new",0,125,125,125,NA,NA,NA,NA,NA,NA,"",NA,NA,NA,"",NA,NA,NA,"",NA,NA,NA,"",NA,976.714054459,973.583662792,973.583662792,973.583662792,973.583662792,973.583662792,"right",1.73561358299776,975.614270709004,975.614270709004,975.614270709004,975.614270709004,975.614270709004,975.614270709004,975.614270709004,975.614270709004,975.614270709004,1,1.07434129100147,976.964286791997,NA,NA,NA,NA,"","",NA,NA,"",NA,992,"2022-11-28_09h40.15.205","recognition","2022.2.4",59.9000269749823,NA,0
"192","2.50659176219515","148.319327731092","328.319327731092","medium","143.68997362902098","maps/google_map_1.png","85.3706458979286","objects/1/1_131.jpg","0.0","outdoors","Cart_Wooden.jpg","old",0,126,126,126,0,0,0,0,NA,NA,"",NA,NA,NA,"",NA,NA,NA,"",NA,NA,NA,"",NA,985.147517375,977.215317834001,977.215317834001,977.215317834001,977.215317834001,977.215317834001,"left",6.13503166699957,983.649075709,983.649075709,983.649075709,983.649075709,983.649075709,983.649075709,983.649075709,983.649075709,983.649075709,6,1.47411712499888,985.614602667003,985.614602667003,985.614602667003,985.614602667003,234.5,"['return']","[1.6240986659977352]",NA,NA,"",NA,992,"2022-11-28_09h40.15.205","recognition","2022.2.4",59.9000269749823,NA,1
"194","None","None","None","None","None","maps/google_map_1.png","None","objects/2/2_31.jpg","None","indoors","Plate_Decorative.jpg","new",0,127,127,127,NA,NA,NA,NA,NA,NA,"",NA,NA,NA,"",NA,NA,NA,"",NA,NA,NA,"",NA,991.231815375002,987.499008084,987.499008084,987.499008084,987.499008084,987.499008084,"right",2.48310258299898,990.263873917,990.263873917,990.263873917,990.263873917,990.263873917,990.263873917,990.263873917,990.263873917,990.263873917,1,0.935848499997519,991.481800709,NA,NA,NA,NA,"","",NA,NA,"",NA,992,"2022-11-28_09h40.15.205","recognition","2022.2.4",59.9000269749823,NA,0
"195","None","None","None","None","None","maps/google_map_1.png","None","objects/2/2_85.jpg","None","outdoors","Mask_Gas.jpg","new",0,128,128,128,NA,NA,NA,NA,NA,NA,"",NA,NA,NA,"",NA,NA,NA,"",NA,NA,NA,"",NA,993.931363084004,991.731502041999,991.731502041999,991.731502041999,991.731502041999,991.731502041999,"right",1.34183820799808,993.365587042004,993.365587042004,993.365587042004,993.365587042004,993.365587042004,993.365587042004,993.365587042004,993.365587042004,993.365587042004,1,0.535655916995893,994.181891792003,NA,NA,NA,NA,"","",NA,NA,"",NA,992,"2022-11-28_09h40.15.205","recognition","2022.2.4",59.9000269749823,NA,0
"196","None","None","None","None","None","maps/google_map_1.png","None","objects/2/2_32.jpg","None","outdoors","Tombstone.jpg","new",0,129,129,129,NA,NA,NA,NA,NA,NA,"",NA,NA,NA,"",NA,NA,NA,"",NA,NA,NA,"",NA,996.532329250003,994.431688500001,994.431688500001,994.431688500001,994.431688500001,994.431688500001,"right",1.0989313329992,995.813486291998,995.813486291998,995.813486291998,995.813486291998,995.813486291998,995.813486291998,995.813486291998,995.813486291998,995.813486291998,1,0.695813042002555,995.813486291998,NA,NA,NA,NA,"","",NA,NA,"",NA,992,"2022-11-28_09h40.15.205","recognition","2022.2.4",59.9000269749823,NA,0
"197","None","None","None","None","None","maps/google_map_1.png","None","objects/2/2_98.jpg","None","outdoors","Chinchilla.jpg","new",0,130,130,130,NA,NA,NA,NA,NA,NA,"",NA,NA,NA,"",NA,NA,NA,"",NA,NA,NA,"",NA,998.831746542004,997.031727709,997.031727709,997.031727709,997.031727709,997.031727709,"right",1.07574449999811,998.398700917001,998.398700917001,998.398700917001,998.398700917001,998.398700917001,998.398700917001,998.398700917001,998.398700917001,998.398700917001,1,0.401287041997421,999.081870667003,NA,NA,NA,NA,"","",NA,NA,"",NA,992,"2022-11-28_09h40.15.205","recognition","2022.2.4",59.9000269749823,NA,0
"198","None","None","None","None","None","maps/google_map_1.png","None","objects/2/2_65.jpg","None","indoors","Pacifier.jpg","new",0,131,131,131,NA,NA,NA,NA,NA,NA,"",NA,NA,NA,"",NA,NA,NA,"",NA,NA,NA,"",NA,1001.598713667,999.333018249999,999.333018249999,999.333018249999,999.333018249999,999.333018249999,"right",1.25918833300238,1000.882509459,1000.882509459,1000.882509459,1000.882509459,1000.882509459,1000.882509459,1000.882509459,1000.882509459,1000.882509459,1,0.686989999994694,1001.848397375,NA,NA,NA,NA,"","",NA,NA,"",NA,992,"2022-11-28_09h40.15.205","recognition","2022.2.4",59.9000269749823,NA,0
"199","None","None","None","None","None","maps/google_map_1.png","None","objects/2/2_84.jpg","None","outdoors","Sign_Taxi.jpg","new",0,132,132,132,NA,NA,NA,NA,NA,NA,"",NA,NA,NA,"",NA,NA,NA,"",NA,NA,NA,"",NA,1004.082002792,1002.098325417,1002.098325417,1002.098325417,1002.098325417,1002.098325417,"right",1.08257183299429,1003.466492292,1003.466492292,1003.466492292,1003.466492292,1003.466492292,1003.466492292,1003.466492292,1003.466492292,1003.466492292,1,0.582562790994416,1003.466492292,NA,NA,NA,NA,"","",NA,NA,"",NA,992,"2022-11-28_09h40.15.205","recognition","2022.2.4",59.9000269749823,NA,0
"200","6.0361459701246","71.8991596638655","251.89915966386602","low","346.021106567652","maps/google_map_1.png","4.1219469037868794","objects/1/1_133.jpg","0.0","outdoors","Bird_CanadianGoose.jpg","old",0,133,133,133,0,0,0,0,NA,NA,"",NA,NA,NA,"",NA,NA,NA,"",NA,NA,NA,"",NA,1009.6487035,1004.58176325,1004.58176325,1004.58176325,1004.58176325,1004.58176325,"left",1.62243058300373,1006.498753167,1006.498753167,1006.498753167,1006.498753167,1006.498753167,1006.498753167,1006.498753167,1006.498753167,1006.498753167,5,3.12231849900127,1010.111238375,1010.111238375,1010.111238375,1010.111238375,221.5,"['return']","[1.4554814579969388]",NA,NA,"",NA,992,"2022-11-28_09h40.15.205","recognition","2022.2.4",59.9000269749823,NA,1
"202","None","None","None","None","None","maps/google_map_1.png","None","objects/2/2_33.jpg","None","indoors","Box_WoodenClosed.jpg","new",0,134,134,134,NA,NA,NA,NA,NA,NA,"",NA,NA,NA,"",NA,NA,NA,"",NA,NA,NA,"",NA,1014.248793,1011.833735542,1011.833735542,1011.833735542,1011.833735542,1011.833735542,"right",1.65737312500278,1013.783192917,1013.783192917,1013.783192917,1013.783192917,1013.783192917,1013.783192917,1013.783192917,1013.783192917,1013.783192917,1,0.440426458000729,1014.498999125,NA,NA,NA,NA,"","",NA,NA,"",NA,992,"2022-11-28_09h40.15.205","recognition","2022.2.4",59.9000269749823,NA,0
"203","5.920615485415139","71.8991596638655","251.89915966386602","low","339.398339928256","maps/google_map_1.png","2.50081973560928","objects/1/1_98.jpg","0.0","indoors","Brush_BathBack.jpg","old",0,135,135,135,0,0,0,0,NA,NA,"",NA,NA,NA,"",NA,NA,NA,"",NA,NA,NA,"",NA,1018.365671084,1014.748466875,1014.748466875,1014.748466875,1014.748466875,1014.748466875,"left",1.04601783300313,1016.082598709,1016.082598709,1016.082598709,1016.082598709,1016.082598709,1016.082598709,1016.082598709,1016.082598709,1016.082598709,6,2.25542966699868,1018.831355959,1018.831355959,1018.831355959,1018.831355959,225,"['return']","[3.326127832995553]",NA,NA,"",NA,992,"2022-11-28_09h40.15.205","recognition","2022.2.4",59.9000269749823,NA,1
"205","0.97575514663825","148.319327731092","328.319327731092","low","55.9350084060143","maps/google_map_1.png","2.38431932507811","objects/1/1_56.jpg","0.0","indoors","SafetyPin.jpg","old",0,136,136,136,0,0,0,0,NA,NA,"",NA,NA,NA,"",NA,NA,NA,"",NA,NA,NA,"",NA,1027.699439334,1022.41579575,1022.41579575,1022.41579575,1022.41579575,1022.41579575,"left",3.95365350000066,1026.664495292,1026.664495292,1026.664495292,1026.664495292,1026.664495292,1026.664495292,1026.664495292,1026.664495292,1026.664495292,6,1.01723262499581,1028.161032625,1028.161032625,1028.161032625,1028.161032625,232.5,"['return']","[1.4083944579979288]",NA,NA,"",NA,992,"2022-11-28_09h40.15.205","recognition","2022.2.4",59.9000269749823,NA,1
"207","0.0869112558844378","71.8991596638655","251.89915966386602","low","4.9821739042034405","maps/google_map_1.png","23.083014240337896","objects/1/1_109.jpg","0.0","indoors","FloppyDisk.jpg","old",0,137,137,137,0,0,0,0,NA,NA,"",NA,NA,NA,"",NA,NA,NA,"",NA,NA,NA,"",NA,1032.616011917,1029.832295,1029.832295,1029.832295,1029.832295,1029.832295,"left",1.39096199999767,1031.515971709,1031.515971709,1031.515971709,1031.515971709,1031.515971709,1031.515971709,1031.515971709,1031.515971709,1031.515971709,6,1.08127829099249,1033.083655792,1033.083655792,1033.083655792,1033.083655792,32.5,"['return']","[3.684079375001602]",NA,NA,"",NA,992,"2022-11-28_09h40.15.205","recognition","2022.2.4",59.9000269749823,NA,1
"209","3.59061593094402","148.319327731092","328.319327731092","high","205.83148648723702","maps/google_map_1.png","147.512158756144","objects/1/1_28.jpg","0.0","indoors","PaperCutter.jpg","old",0,138,138,138,0,0,0,0,NA,NA,"",NA,NA,NA,"",NA,NA,NA,"",NA,NA,NA,"",NA,1040.19950275,1037.03351375,1037.03351375,1037.03351375,1037.03351375,1037.03351375,"left",0.947418875002768,1038.265232584,1038.265232584,1038.265232584,1038.265232584,1038.265232584,1038.265232584,1038.265232584,1038.265232584,1038.265232584,6,1.91566437500296,1040.662224959,1040.662224959,1040.662224959,1040.662224959,234.5,"['return']","[2.0474291249993257]",NA,NA,"",NA,992,"2022-11-28_09h40.15.205","recognition","2022.2.4",59.9000269749823,NA,1
"211","None","None","None","None","None","maps/google_map_1.png","None","objects/2/2_59.jpg","None","outdoors","Hoverboard.jpg","new",0,139,139,139,NA,NA,NA,NA,NA,NA,"",NA,NA,NA,"",NA,NA,NA,"",NA,NA,NA,"",NA,1046.2661015,1042.980734334,1042.980734334,1042.980734334,1042.980734334,1042.980734334,"right",2.14217170800111,1045.413334,1045.413334,1045.413334,1045.413334,1045.413334,1045.413334,1045.413334,1045.413334,1045.413334,1,0.833766333002131,1046.516149417,NA,NA,NA,NA,"","",NA,NA,"",NA,992,"2022-11-28_09h40.15.205","recognition","2022.2.4",59.9000269749823,NA,0
"212","2.0757402946220602","148.319327731092","328.319327731092","medium","118.991481857316","maps/google_map_1.png","60.672154126223205","objects/1/1_107.jpg","0.0","outdoors","Sled.jpg","old",0,140,140,140,0,0,0,0,NA,NA,"",NA,NA,NA,"",NA,NA,NA,"",NA,NA,NA,"",NA,1051.949256542,1046.765453084,1046.765453084,1046.765453084,1046.765453084,1046.765453084,"left",2.99120779100485,1050.047352292,1050.047352292,1050.047352292,1050.047352292,1050.047352292,1050.047352292,1050.047352292,1050.047352292,1050.047352292,6,1.86999991600169,1052.410493042,1052.410493042,1052.410493042,1052.410493042,221.5,"['return']","[1.7413035409990698]",NA,NA,"",NA,992,"2022-11-28_09h40.15.205","recognition","2022.2.4",59.9000269749823,NA,1
"214","3.1365606040590603","71.8991596638655","251.89915966386602","high","179.80283717536","maps/google_map_1.png","162.096322488505","objects/1/1_117.jpg","0.0","indoors","Broom_Short.jpg","old",0,141,141,141,0,0,0,0,NA,NA,"",NA,NA,NA,"",NA,NA,NA,"",NA,NA,NA,"",NA,1057.799461167,1054.417288917,1054.417288917,1054.417288917,1054.417288917,1054.417288917,"left",1.61311424899759,1056.313803042,1056.313803042,1056.313803042,1056.313803042,1056.313803042,1056.313803042,1056.313803042,1056.313803042,1056.313803042,6,1.46013054200012,1056.313803042,1058.262493334,1058.262493334,1058.262493334,144.5,"['return']","[2.692540750002081]",NA,NA,"",NA,992,"2022-11-28_09h40.15.205","recognition","2022.2.4",59.9000269749823,NA,1
"216","1.37906478308972","71.8991596638655","251.89915966386602","medium","79.054669094315","maps/google_map_1.png","97.15550943044941","objects/1/1_111.jpg","0.0","indoors","Card_TwoSpade.jpg","old",0,142,142,142,0,0,0,0,NA,NA,"",NA,NA,NA,"",NA,NA,NA,"",NA,NA,NA,"",NA,1064.533017084,1061.216869584,1061.216869584,1061.216869584,1061.216869584,1061.216869584,"left",1.59348979200149,1063.097293834,1063.097293834,1063.097293834,1063.097293834,1063.097293834,1063.097293834,1063.097293834,1063.097293834,1063.097293834,6,1.41842899999756,1064.993322,1064.993322,1064.993322,1064.993322,144.5,"['return']","[2.971711748999951]",NA,NA,"",NA,992,"2022-11-28_09h40.15.205","recognition","2022.2.4",59.9000269749823,NA,1
"218","1.11200298672419","148.319327731092","328.319327731092","low","63.745394143424996","maps/google_map_1.png","5.42606641233261","objects/1/1_74.jpg","0.0","outdoors","Car_Buggy.jpg","old",0,143,143,143,0,0,0,0,NA,NA,"",NA,NA,NA,"",NA,NA,NA,"",NA,NA,NA,"",NA,1074.416470542,1068.234400792,1068.234400792,1068.234400792,1068.234400792,1068.234400792,"left",4.56796924999799,1073.098098834,1073.098098834,1073.098098834,1073.098098834,1073.098098834,1073.098098834,1073.098098834,1073.098098834,1073.098098834,5,1.29815437499929,1074.877317375,1074.877317375,1074.877317375,1074.877317375,36,"['return']","[5.445989082996675]",NA,NA,"",NA,992,"2022-11-28_09h40.15.205","recognition","2022.2.4",59.9000269749823,NA,1
