radians,center,pos_1,pos_2,type,degrees,map_file,PE,object,isFiller,outdoors_response,stimulus,old_new,trials.thisRepN,trials.thisTrialN,trials.thisN,trials.thisIndex,location_loop.thisRepN,location_loop.thisTrialN,location_loop.thisN,location_loop.thisIndex,instructions_text.started,key_resp.started,key_resp.keys,key_resp.rt,conf_resp_2.started,conf_prompt_2.started,conf.started,conf_7.started,conf_8.started,conf_9.started,conf_10.started,conf_11.started,conf_resp_2.keys,conf_resp_2.rt,Instr_4_text.started,Instr_4_resp.started,Instr_4_resp.keys,Instr_4_resp.rt,final_instr_resp.started,instruction_final_text.started,final_instr_resp.keys,final_instr_resp.rt,text_4.started,image_feedb_2.started,conf_resp.started,conf_prompt.started,conf_1.started,conf_2.started,conf_3.started,conf_4.started,conf_5.started,conf_6.started,conf_resp.keys,conf_resp.rt,text_4.stopped,image_2.started,predict_prompt.started,line.started,response,key_resp_2.keys,key_resp_2.rt,instructions_text_2.started,key_resp_3.started,key_resp_3.keys,key_resp_3.rt,participant,date,expName,psychopyVersion,frameRate,
,,,,,,,,,,,,,,,,,,,,,19.708487799995055,19.708487799995055,space,6.00695380000252,,,,,,,,,,,,,,,,,,,,,,,,,,,,,,,,,,,,,,,,,,194,2022-12-23_11h05.26.540,PEmem_Phase-02_retrieval,2022.2.4,None,
,,,,,,,,,,,,,,,,,,,,,,,,,25.7522589999935,25.7522589999935,25.7522589999935,25.7522589999935,25.7522589999935,25.7522589999935,25.7522589999935,25.7522589999935,space,0.7164218000034452,,,,,,,,,,,,,,,,,,,,,,,,,,,,,,,,194,2022-12-23_11h05.26.540,PEmem_Phase-02_retrieval,2022.2.4,None,
,,,,,,,,,,,,,,,,,,,,,,,,,,,,,,,,,,,26.47893049999402,26.47893049999402,space,0.9794554000036442,,,,,,,,,,,,,,,,,,,,,,,,,,,,194,2022-12-23_11h05.26.540,PEmem_Phase-02_retrieval,2022.2.4,None,
,,,,,,,,,,,,,,,,,,,,,,,,,,,,,,,,,,,,,,,27.471520199993392,27.471520199993392,space,0.6322221000009449,,,,,,,,,,,,,,,,,,,,,,,,194,2022-12-23_11h05.26.540,PEmem_Phase-02_retrieval,2022.2.4,None,
None,None,None,None,None,None,maps/google_map_1.png,None,objects/2/2_30.jpg,None,indoors,Spoons_MeasuringDetached.jpg,new,0,0,0,0,,,,,,,,,,,,,,,,,,,,,,,,,,,29.641352699996787,28.402854399995704,28.402854399995704,28.402854399995704,28.402854399995704,28.402854399995704,28.402854399995704,28.402854399995704,28.402854399995704,28.402854399995704,1,1.2239739000069676,29.887532900000224,,,,,,,,,,,194,2022-12-23_11h05.26.540,PEmem_Phase-02_retrieval,2022.2.4,None,
None,None,None,None,None,None,maps/google_map_1.png,None,objects/2/2_38.jpg,None,indoors,ComputerMouse.jpg,new,0,1,1,1,,,,,,,,,,,,,,,,,,,,,,,,,,,31.04592859999684,30.148685499996645,30.148685499996645,30.148685499996645,30.148685499996645,30.148685499996645,30.148685499996645,30.148685499996645,30.148685499996645,30.148685499996645,1,0.8821950000055949,31.287383999995654,,,,,,,,,,,194,2022-12-23_11h05.26.540,PEmem_Phase-02_retrieval,2022.2.4,None,
None,None,None,None,None,None,maps/google_map_1.png,None,objects/2/2_42.jpg,None,outdoors,Kite_Rainbow.jpg,new,0,2,2,2,,,,,,,,,,,,,,,,,,,,,,,,,,,32.170871099995566,31.545291700000234,31.545291700000234,31.545291700000234,31.545291700000234,31.545291700000234,31.545291700000234,31.545291700000234,31.545291700000234,31.545291700000234,1,0.6128143000023556,32.4127612999946,,,,,,,,,,,194,2022-12-23_11h05.26.540,PEmem_Phase-02_retrieval,2022.2.4,None,
1.70141817299976,106.588235294118,196.588235294118,16.5882352941177,low,97.5335258407505,maps/google_map_1.png,9.05470945336716,objects/1/1_88.jpg,0.0,outdoors,Golf_Club.jpg,old,0,3,3,3,0,0,0,0,,,,,,,,,,,,,,,,,,,,,,,33.53763849999814,32.671463299993775,32.671463299993775,32.671463299993775,32.671463299993775,32.671463299993775,32.671463299993775,32.671463299993775,32.671463299993775,32.671463299993775,1,0.8559544000017922,34.01659839999775,34.01659839999775,34.01659839999775,34.01659839999775,58,['return'],[1.677358799999638],,,,,194,2022-12-23_11h05.26.540,PEmem_Phase-02_retrieval,2022.2.4,None,
1.70141817299976,106.588235294118,196.588235294118,16.5882352941177,low,97.5335258407505,maps/google_map_1.png,9.05470945336716,objects/1/1_88.jpg,0.0,outdoors,Golf_Club.jpg,old,0,3,3,3,,,,,,,,,,,,,,,,,,,,,,,,,,,,,,,,,,,,,,,,,,,,,,,,,,194,2022-12-23_11h05.26.540,PEmem_Phase-02_retrieval,2022.2.4,None,
None,None,None,None,None,None,maps/google_map_1.png,None,objects/2/2_100.jpg,None,outdoors,Hay.jpg,new,0,4,4,4,,,,,,,,,,,,,,,,,,,,,,,,,,,38.162841299999855,35.95807539999805,35.95807539999805,35.95807539999805,35.95807539999805,35.95807539999805,35.95807539999805,35.95807539999805,35.95807539999805,35.95807539999805,1,2.19552890000341,38.404415599994536,,,,,,,,,,,194,2022-12-23_11h05.26.540,PEmem_Phase-02_retrieval,2022.2.4,None,
None,None,None,None,None,None,maps/google_map_1.png,None,objects/2/2_142.jpg,None,indoors,Slippers.jpg,new,0,5,5,5,,,,,,,,,,,,,,,,,,,,,,,,,,,39.354411000000255,38.66473639999458,38.66473639999458,38.66473639999458,38.66473639999458,38.66473639999458,38.66473639999458,38.66473639999458,38.66473639999458,38.66473639999458,1,0.6809024000031059,39.59599279999384,,,,,,,,,,,194,2022-12-23_11h05.26.540,PEmem_Phase-02_retrieval,2022.2.4,None,
None,None,None,None,None,None,maps/google_map_1.png,None,objects/2/2_123.jpg,None,outdoors,Bird_Eagle.jpg,new,0,6,6,6,,,,,,,,,,,,,,,,,,,,,,,,,,,40.63780979999865,39.857732899996336,39.857732899996336,39.857732899996336,39.857732899996336,39.857732899996336,39.857732899996336,39.857732899996336,39.857732899996336,39.857732899996336,1,0.7738371000014013,40.88220679999358,,,,,,,,,,,194,2022-12-23_11h05.26.540,PEmem_Phase-02_retrieval,2022.2.4,None,
3.83851059992317,106.588235294118,196.588235294118,16.5882352941177,medium,220.042008912793,maps/google_map_1.png,113.453773618676,objects/1/1_16.jpg,0.0,indoors,Qtip_Single.jpg,old,0,7,7,7,0,0,0,0,,,,,,,,,,,,,,,,,,,,,,,42.52114829999482,41.14740449999954,41.14740449999954,41.14740449999954,41.14740449999954,41.14740449999954,41.14740449999954,41.14740449999954,41.14740449999954,41.14740449999954,5,1.3648206000070786,42.87562549999711,42.87562549999711,42.87562549999711,42.87562549999711,191,['return'],[0.9890469000019948],,,,,194,2022-12-23_11h05.26.540,PEmem_Phase-02_retrieval,2022.2.4,None,
3.83851059992317,106.588235294118,196.588235294118,16.5882352941177,medium,220.042008912793,maps/google_map_1.png,113.453773618676,objects/1/1_16.jpg,0.0,indoors,Qtip_Single.jpg,old,0,7,7,7,,,,,,,,,,,,,,,,,,,,,,,,,,,,,,,,,,,,,,,,,,,,,,,,,,194,2022-12-23_11h05.26.540,PEmem_Phase-02_retrieval,2022.2.4,None,
None,None,None,None,None,None,maps/google_map_1.png,None,objects/2/2_79.jpg,None,indoors,Key_Car.jpg,new,0,8,8,8,,,,,,,,,,,,,,,,,,,,,,,,,,,46.0376854999995,44.125491099999635,44.125491099999635,44.125491099999635,44.125491099999635,44.125491099999635,44.125491099999635,44.125491099999635,44.125491099999635,44.125491099999635,1,1.8959577999994508,46.279370199998084,,,,,,,,,,,194,2022-12-23_11h05.26.540,PEmem_Phase-02_retrieval,2022.2.4,None,
None,None,None,None,None,None,maps/google_map_1.png,None,objects/2/2_16.jpg,None,outdoors,Sign_SpeedLimit25.jpg,new,0,9,9,9,,,,,,,,,,,,,,,,,,,,,,,,,,,47.42945019999752,46.538764599994465,46.538764599994465,46.538764599994465,46.538764599994465,46.538764599994465,46.538764599994465,46.538764599994465,46.538764599994465,46.538764599994465,1,0.8814211999997497,47.6709950000004,,,,,,,,,,,194,2022-12-23_11h05.26.540,PEmem_Phase-02_retrieval,2022.2.4,None,
None,None,None,None,None,None,maps/google_map_1.png,None,objects/2/2_39.jpg,None,outdoors,Flags_CheckeredRacing.jpg,new,0,10,10,10,,,,,,,,,,,,,,,,,,,,,,,,,,,48.612774699999136,47.930635199998505,47.930635199998505,47.930635199998505,47.930635199998505,47.930635199998505,47.930635199998505,47.930635199998505,47.930635199998505,47.930635199998505,1,0.6668969000020297,48.8543725999989,,,,,,,,,,,194,2022-12-23_11h05.26.540,PEmem_Phase-02_retrieval,2022.2.4,None,
None,None,None,None,None,None,maps/google_map_1.png,None,objects/2/2_21.jpg,None,outdoors,Dog_SaintBernard.jpg,new,0,11,11,11,,,,,,,,,,,,,,,,,,,,,,,,,,,49.81355210000038,49.109387999997125,49.109387999997125,49.109387999997125,49.109387999997125,49.109387999997125,49.109387999997125,49.109387999997125,49.109387999997125,49.109387999997125,1,0.6924507000003359,50.05429159999767,,,,,,,,,,,194,2022-12-23_11h05.26.540,PEmem_Phase-02_retrieval,2022.2.4,None,
None,None,None,None,None,None,maps/google_map_1.png,None,objects/2/2_128.jpg,None,indoors,SewingPin_Single.jpg,new,0,12,12,12,,,,,,,,,,,,,,,,,,,,,,,,,,,51.221067099999345,50.31180389999645,50.31180389999645,50.31180389999645,50.31180389999645,50.31180389999645,50.31180389999645,50.31180389999645,50.31180389999645,50.31180389999645,1,0.8970687000037287,51.462722099997336,,,,,,,,,,,194,2022-12-23_11h05.26.540,PEmem_Phase-02_retrieval,2022.2.4,None,
5.8202360323559,196.588235294118,286.588235294118,106.588235294118,high,333.644103765625,maps/google_map_1.png,137.055868471507,objects/1/1_83.jpg,0.0,outdoors,Swing_Child.jpg,old,0,13,13,13,0,0,0,0,,,,,,,,,,,,,,,,,,,,,,,52.81270389999554,51.71741779999866,51.71741779999866,51.71741779999866,51.71741779999866,51.71741779999866,51.71741779999866,51.71741779999866,51.71741779999866,51.71741779999866,5,1.085259200001019,53.16677720000007,53.16677720000007,53.16677720000007,53.16677720000007,2.0,['return'],[1.8146657000033883],,,,,194,2022-12-23_11h05.26.540,PEmem_Phase-02_retrieval,2022.2.4,None,
5.8202360323559,196.588235294118,286.588235294118,106.588235294118,high,333.644103765625,maps/google_map_1.png,137.055868471507,objects/1/1_83.jpg,0.0,outdoors,Swing_Child.jpg,old,0,13,13,13,,,,,,,,,,,,,,,,,,,,,,,,,,,,,,,,,,,,,,,,,,,,,,,,,,194,2022-12-23_11h05.26.540,PEmem_Phase-02_retrieval,2022.2.4,None,
3.36164901430429,196.588235294118,286.588235294118,106.588235294118,low,192.705994450564,maps/google_map_1.png,3.88224084355317,objects/1/1_8.jpg,0.0,outdoors,Snake_Cobra.jpg,old,0,14,14,14,0,0,0,0,,,,,,,,,,,,,,,,,,,,,,,56.6462040999977,55.24787379999907,55.24787379999907,55.24787379999907,55.24787379999907,55.24787379999907,55.24787379999907,55.24787379999907,55.24787379999907,55.24787379999907,4,1.384802500004298,56.99715849999484,56.99715849999484,56.99715849999484,56.99715849999484,128.5,['return'],[3.851031199999852],,,,,194,2022-12-23_11h05.26.540,PEmem_Phase-02_retrieval,2022.2.4,None,
3.36164901430429,196.588235294118,286.588235294118,106.588235294118,low,192.705994450564,maps/google_map_1.png,3.88224084355317,objects/1/1_8.jpg,0.0,outdoors,Snake_Cobra.jpg,old,0,14,14,14,,,,,,,,,,,,,,,,,,,,,,,,,,,,,,,,,,,,,,,,,,,,,,,,,,194,2022-12-23_11h05.26.540,PEmem_Phase-02_retrieval,2022.2.4,None,
0.26187304611536,196.588235294118,286.588235294118,106.588235294118,high,15.0118306690334,maps/google_map_1.png,178.423595374916,objects/1/1_108.jpg,0.0,indoors,Lipstick.jpg,old,0,15,15,15,0,0,0,0,,,,,,,,,,,,,,,,,,,,,,,91.45496249999997,61.11469070000021,61.11469070000021,61.11469070000021,61.11469070000021,61.11469070000021,61.11469070000021,61.11469070000021,61.11469070000021,61.11469070000021,6,30.327123600007326,91.81021949999558,91.81021949999558,91.81021949999558,91.81021949999558,161.5,['return'],[2.3320280000043567],,,,,194,2022-12-23_11h05.26.540,PEmem_Phase-02_retrieval,2022.2.4,None,
0.26187304611536,196.588235294118,286.588235294118,106.588235294118,high,15.0118306690334,maps/google_map_1.png,178.423595374916,objects/1/1_108.jpg,0.0,indoors,Lipstick.jpg,old,0,15,15,15,,,,,,,,,,,,,,,,,,,,,,,,,,,,,,,,,,,,,,,,,,,,,,,,,,194,2022-12-23_11h05.26.540,PEmem_Phase-02_retrieval,2022.2.4,None,
1.91694278626923,106.588235294118,196.588235294118,16.5882352941177,low,109.888439977217,maps/google_map_1.png,3.30020468309922,objects/1/1_33.jpg,0.0,indoors,Mop.jpg,old,0,16,16,16,0,0,0,0,,,,,,,,,,,,,,,,,,,,,,,95.63816549999319,94.4067717999933,94.4067717999933,94.4067717999933,94.4067717999933,94.4067717999933,94.4067717999933,94.4067717999933,94.4067717999933,94.4067717999933,5,1.2225824000051944,95.98924379999517,95.98924379999517,95.98924379999517,95.98924379999517,122.5,['return'],[1.0080396000048495],,,,,194,2022-12-23_11h05.26.540,PEmem_Phase-02_retrieval,2022.2.4,None,
1.91694278626923,106.588235294118,196.588235294118,16.5882352941177,low,109.888439977217,maps/google_map_1.png,3.30020468309922,objects/1/1_33.jpg,0.0,indoors,Mop.jpg,old,0,16,16,16,,,,,,,,,,,,,,,,,,,,,,,,,,,,,,,,,,,,,,,,,,,,,,,,,,194,2022-12-23_11h05.26.540,PEmem_Phase-02_retrieval,2022.2.4,None,
3.22184618671929,196.588235294118,286.588235294118,106.588235294118,low,184.691819620851,maps/google_map_1.png,11.8964156732668,objects/1/1_133.jpg,0.0,indoors,Clip_Paper.jpg,old,0,17,17,17,0,0,0,0,,,,,,,,,,,,,,,,,,,,,,,98.06315539999923,97.2587482999952,97.2587482999952,97.2587482999952,97.2587482999952,97.2587482999952,97.2587482999952,97.2587482999952,97.2587482999952,97.2587482999952,5,0.7957666000074823,98.41446419999556,98.41446419999556,98.41446419999556,98.41446419999556,72.0,['return'],[0.7118392000047606],,,,,194,2022-12-23_11h05.26.540,PEmem_Phase-02_retrieval,2022.2.4,None,
3.22184618671929,196.588235294118,286.588235294118,106.588235294118,low,184.691819620851,maps/google_map_1.png,11.8964156732668,objects/1/1_133.jpg,0.0,indoors,Clip_Paper.jpg,old,0,17,17,17,,,,,,,,,,,,,,,,,,,,,,,,,,,,,,,,,,,,,,,,,,,,,,,,,,194,2022-12-23_11h05.26.540,PEmem_Phase-02_retrieval,2022.2.4,None,
4.99604997347793,106.588235294118,196.588235294118,16.5882352941177,high,286.397769180263,maps/google_map_1.png,179.809533886146,objects/1/1_110.jpg,0.0,indoors,Belt.jpg,old,0,18,18,18,0,0,0,0,,,,,,,,,,,,,,,,,,,,,,,100.18822219999856,99.39899179999338,99.39899179999338,99.39899179999338,99.39899179999338,99.39899179999338,99.39899179999338,99.39899179999338,99.39899179999338,99.39899179999338,5,0.7784119999996619,100.53735659999802,100.53735659999802,100.53735659999802,100.53735659999802,303.0,['return'],[0.9863698000044678],,,,,194,2022-12-23_11h05.26.540,PEmem_Phase-02_retrieval,2022.2.4,None,
4.99604997347793,106.588235294118,196.588235294118,16.5882352941177,high,286.397769180263,maps/google_map_1.png,179.809533886146,objects/1/1_110.jpg,0.0,indoors,Belt.jpg,old,0,18,18,18,,,,,,,,,,,,,,,,,,,,,,,,,,,,,,,,,,,,,,,,,,,,,,,,,,194,2022-12-23_11h05.26.540,PEmem_Phase-02_retrieval,2022.2.4,None,
1.26658914834245,106.588235294118,196.588235294118,16.5882352941177,low,72.607021242561,maps/google_map_1.png,33.9812140515567,objects/1/1_51.jpg,0.0,indoors,DusterFeather.jpg,old,0,19,19,19,0,0,0,0,,,,,,,,,,,,,,,,,,,,,,,102.45478749999893,101.78918580000027,101.78918580000027,101.78918580000027,101.78918580000027,101.78918580000027,101.78918580000027,101.78918580000027,101.78918580000027,101.78918580000027,5,0.655942800003686,102.80517569999938,102.80517569999938,102.80517569999938,102.80517569999938,44.0,['return'],[0.9187165000039386],,,,,194,2022-12-23_11h05.26.540,PEmem_Phase-02_retrieval,2022.2.4,None,
1.26658914834245,106.588235294118,196.588235294118,16.5882352941177,low,72.607021242561,maps/google_map_1.png,33.9812140515567,objects/1/1_51.jpg,0.0,indoors,DusterFeather.jpg,old,0,19,19,19,,,,,,,,,,,,,,,,,,,,,,,,,,,,,,,,,,,,,,,,,,,,,,,,,,194,2022-12-23_11h05.26.540,PEmem_Phase-02_retrieval,2022.2.4,None,
4.70120448179272,106.588235294118,106.588235294118,43.2352941176471,singletons,269.495798319328,maps/google_map_1.png,None,objects/1/1_123.jpg,0.0,indoors,Chair_Rocking.jpg,old,0,20,20,20,0,0,0,0,,,,,,,,,,,,,,,,,,,,,,,105.84634859999642,103.98970619999454,103.98970619999454,103.98970619999454,103.98970619999454,103.98970619999454,103.98970619999454,103.98970619999454,103.98970619999454,103.98970619999454,6,1.8439278000078048,106.19608539999899,106.19608539999899,106.19608539999899,106.19608539999899,158.5,['return'],[1.0647058000031393],,,,,194,2022-12-23_11h05.26.540,PEmem_Phase-02_retrieval,2022.2.4,None,
4.70120448179272,106.588235294118,106.588235294118,43.2352941176471,singletons,269.495798319328,maps/google_map_1.png,None,objects/1/1_123.jpg,0.0,indoors,Chair_Rocking.jpg,old,0,20,20,20,,,,,,,,,,,,,,,,,,,,,,,,,,,,,,,,,,,,,,,,,,,,,,,,,,194,2022-12-23_11h05.26.540,PEmem_Phase-02_retrieval,2022.2.4,None,
None,None,None,None,None,None,maps/google_map_1.png,None,objects/2/2_104.jpg,None,indoors,Man.jpg,new,0,21,21,21,,,,,,,,,,,,,,,,,,,,,,,,,,,109.08828199999698,107.5394801999937,107.5394801999937,107.5394801999937,107.5394801999937,107.5394801999937,107.5394801999937,107.5394801999937,107.5394801999937,107.5394801999937,1,1.5400783000004594,109.33002679999481,,,,,,,,,,,194,2022-12-23_11h05.26.540,PEmem_Phase-02_retrieval,2022.2.4,None,
None,None,None,None,None,None,maps/google_map_1.png,None,objects/2/2_81.jpg,None,indoors,ComputerKey_Escape.jpg,new,0,22,22,22,,,,,,,,,,,,,,,,,,,,,,,,,,,110.10495019999507,109.58722259999922,109.58722259999922,109.58722259999922,109.58722259999922,109.58722259999922,109.58722259999922,109.58722259999922,109.58722259999922,109.58722259999922,1,0.5081305999992765,110.34650159999728,,,,,,,,,,,194,2022-12-23_11h05.26.540,PEmem_Phase-02_retrieval,2022.2.4,None,
None,None,None,None,None,None,maps/google_map_1.png,None,objects/2/2_103.jpg,None,indoors,PaperStack.jpg,new,0,23,23,23,,,,,,,,,,,,,,,,,,,,,,,,,,,111.19669489999796,110.60774239999591,110.60774239999591,110.60774239999591,110.60774239999591,110.60774239999591,110.60774239999591,110.60774239999591,110.60774239999591,110.60774239999591,1,0.5729924999977811,111.43832619999739,,,,,,,,,,,194,2022-12-23_11h05.26.540,PEmem_Phase-02_retrieval,2022.2.4,None,
None,None,None,None,None,None,maps/google_map_1.png,None,objects/2/2_22.jpg,None,indoors,Triangle.jpg,new,0,24,24,24,,,,,,,,,,,,,,,,,,,,,,,,,,,112.24647059999552,111.6965510999944,111.6965510999944,111.6965510999944,111.6965510999944,111.6965510999944,111.6965510999944,111.6965510999944,111.6965510999944,111.6965510999944,1,0.5359868000086863,112.5014033999978,,,,,,,,,,,194,2022-12-23_11h05.26.540,PEmem_Phase-02_retrieval,2022.2.4,None,
3.10944216015178,196.588235294118,286.588235294118,106.588235294118,low,178.248276696599,maps/google_map_1.png,18.339958597519,objects/1/1_13.jpg,0.0,outdoors,Bird_Duck.jpg,old,0,25,25,25,0,0,0,0,,,,,,,,,,,,,,,,,,,,,,,114.0214882999935,112.76418149999517,112.76418149999517,112.76418149999517,112.76418149999517,112.76418149999517,112.76418149999517,112.76418149999517,112.76418149999517,112.76418149999517,5,1.242504400004691,114.37509639999917,114.37509639999917,114.37509639999917,114.37509639999917,57.0,['return'],[0.7809794999993755],,,,,194,2022-12-23_11h05.26.540,PEmem_Phase-02_retrieval,2022.2.4,None,
3.10944216015178,196.588235294118,286.588235294118,106.588235294118,low,178.248276696599,maps/google_map_1.png,18.339958597519,objects/1/1_13.jpg,0.0,outdoors,Bird_Duck.jpg,old,0,25,25,25,,,,,,,,,,,,,,,,,,,,,,,,,,,,,,,,,,,,,,,,,,,,,,,,,,194,2022-12-23_11h05.26.540,PEmem_Phase-02_retrieval,2022.2.4,None,
None,None,None,None,None,None,maps/google_map_1.png,None,objects/2/2_93.jpg,None,outdoors,Mixer_Cement.jpg,new,0,26,26,26,,,,,,,,,,,,,,,,,,,,,,,,,,,116.78826869999466,115.42807139999786,115.42807139999786,115.42807139999786,115.42807139999786,115.42807139999786,115.42807139999786,115.42807139999786,115.42807139999786,115.42807139999786,1,1.3445827000032295,117.0300633999941,,,,,,,,,,,194,2022-12-23_11h05.26.540,PEmem_Phase-02_retrieval,2022.2.4,None,
5.80636134453782,196.588235294118,16.5882352941177,314.747899159664,singletons,332.848739495798,maps/google_map_1.png,None,objects/1/1_6.jpg,0.0,outdoors,Bird_Parrot.jpg,old,0,27,27,27,0,0,0,0,,,,,,,,,,,,,,,,,,,,,,,118.33006179999938,117.28982849999738,117.28982849999738,117.28982849999738,117.28982849999738,117.28982849999738,117.28982849999738,117.28982849999738,117.28982849999738,117.28982849999738,5,1.0261541000072611,118.6793719999987,118.6793719999987,118.6793719999987,118.6793719999987,70.5,['return'],[0.5433861000055913],,,,,194,2022-12-23_11h05.26.540,PEmem_Phase-02_retrieval,2022.2.4,None,
5.80636134453782,196.588235294118,16.5882352941177,314.747899159664,singletons,332.848739495798,maps/google_map_1.png,None,objects/1/1_6.jpg,0.0,outdoors,Bird_Parrot.jpg,old,0,27,27,27,,,,,,,,,,,,,,,,,,,,,,,,,,,,,,,,,,,,,,,,,,,,,,,,,,194,2022-12-23_11h05.26.540,PEmem_Phase-02_retrieval,2022.2.4,None,
3.39603528477332,196.588235294118,286.588235294118,106.588235294118,low,194.677181929681,maps/google_map_1.png,1.91105336443709,objects/1/1_100.jpg,0.0,indoors,Pasta_Macaroni.jpg,old,0,28,28,28,0,0,0,0,,,,,,,,,,,,,,,,,,,,,,,120.32996799999819,119.49312729999656,119.49312729999656,119.49312729999656,119.49312729999656,119.49312729999656,119.49312729999656,119.49312729999656,119.49312729999656,119.49312729999656,5,0.8224325999981374,120.68179509999754,120.68179509999754,120.68179509999754,120.68179509999754,112.0,['return'],[1.8029906000083429],,,,,194,2022-12-23_11h05.26.540,PEmem_Phase-02_retrieval,2022.2.4,None,
3.39603528477332,196.588235294118,286.588235294118,106.588235294118,low,194.677181929681,maps/google_map_1.png,1.91105336443709,objects/1/1_100.jpg,0.0,indoors,Pasta_Macaroni.jpg,old,0,28,28,28,,,,,,,,,,,,,,,,,,,,,,,,,,,,,,,,,,,,,,,,,,,,,,,,,,194,2022-12-23_11h05.26.540,PEmem_Phase-02_retrieval,2022.2.4,None,
None,None,None,None,None,None,maps/google_map_1.png,None,objects/2/2_43.jpg,None,indoors,Candy_GummyBear.jpg,new,0,29,29,29,,,,,,,,,,,,,,,,,,,,,,,,,,,124.03838329999417,122.75627679999889,122.75627679999889,122.75627679999889,122.75627679999889,122.75627679999889,122.75627679999889,122.75627679999889,122.75627679999889,122.75627679999889,1,1.273424500002875,124.28006919999461,,,,,,,,,,,194,2022-12-23_11h05.26.540,PEmem_Phase-02_retrieval,2022.2.4,None,
None,None,None,None,None,None,maps/google_map_1.png,None,objects/2/2_7.jpg,None,indoors,Bowl_Wooden.jpg,new,0,30,30,30,,,,,,,,,,,,,,,,,,,,,,,,,,,125.44678169999679,124.53377249999903,124.53377249999903,124.53377249999903,124.53377249999903,124.53377249999903,124.53377249999903,124.53377249999903,124.53377249999903,124.53377249999903,1,0.903475700004492,125.68846149999445,,,,,,,,,,,194,2022-12-23_11h05.26.540,PEmem_Phase-02_retrieval,2022.2.4,None,
None,None,None,None,None,None,maps/google_map_1.png,None,objects/2/2_24.jpg,None,outdoors,Rake_Long.jpg,new,0,31,31,31,,,,,,,,,,,,,,,,,,,,,,,,,,,126.58824309999909,125.94637499999953,125.94637499999953,125.94637499999953,125.94637499999953,125.94637499999953,125.94637499999953,125.94637499999953,125.94637499999953,125.94637499999953,1,0.6257169000018621,126.83016519999364,,,,,,,,,,,194,2022-12-23_11h05.26.540,PEmem_Phase-02_retrieval,2022.2.4,None,
1.85026068615877,106.588235294118,196.588235294118,16.5882352941177,low,106.065899206554,maps/google_map_1.png,0.522336087563704,objects/1/1_14.jpg,0.0,outdoors,Bird_Peacock.jpg,old,0,32,32,32,0,0,0,0,,,,,,,,,,,,,,,,,,,,,,,128.0301943999948,127.08161939999991,127.08161939999991,127.08161939999991,127.08161939999991,127.08161939999991,127.08161939999991,127.08161939999991,127.08161939999991,127.08161939999991,5,0.935604999998759,128.38053459999355,128.38053459999355,128.38053459999355,128.38053459999355,52.5,['return'],[0.9941048000036972],,,,,194,2022-12-23_11h05.26.540,PEmem_Phase-02_retrieval,2022.2.4,None,
1.85026068615877,106.588235294118,196.588235294118,16.5882352941177,low,106.065899206554,maps/google_map_1.png,0.522336087563704,objects/1/1_14.jpg,0.0,outdoors,Bird_Peacock.jpg,old,0,32,32,32,,,,,,,,,,,,,,,,,,,,,,,,,,,,,,,,,,,,,,,,,,,,,,,,,,194,2022-12-23_11h05.26.540,PEmem_Phase-02_retrieval,2022.2.4,None,
5.09060440001762,106.588235294118,196.588235294118,16.5882352941177,high,291.818086625214,maps/google_map_1.png,174.770148668904,objects/1/1_29.jpg,0.0,indoors,DogTreat.jpg,old,0,33,33,33,0,0,0,0,,,,,,,,,,,,,,,,,,,,,,,130.45518209999864,129.64264980000007,129.64264980000007,129.64264980000007,129.64264980000007,129.64264980000007,129.64264980000007,129.64264980000007,129.64264980000007,129.64264980000007,5,0.7974807000064175,130.80681179999374,130.80681179999374,130.80681179999374,130.80681179999374,10.5,['return'],[0.8803417000017362],,,,,194,2022-12-23_11h05.26.540,PEmem_Phase-02_retrieval,2022.2.4,None,
5.09060440001762,106.588235294118,196.588235294118,16.5882352941177,high,291.818086625214,maps/google_map_1.png,174.770148668904,objects/1/1_29.jpg,0.0,indoors,DogTreat.jpg,old,0,33,33,33,,,,,,,,,,,,,,,,,,,,,,,,,,,,,,,,,,,,,,,,,,,,,,,,,,194,2022-12-23_11h05.26.540,PEmem_Phase-02_retrieval,2022.2.4,None,
5.38534920634921,106.588235294118,106.588235294118,172.957983193277,singletons,308.714285714286,maps/google_map_1.png,None,objects/1/1_138.jpg,0.0,indoors,Napkin_Single.jpg,old,0,34,34,34,0,0,0,0,,,,,,,,,,,,,,,,,,,,,,,132.6133137999932,131.95439919999626,131.95439919999626,131.95439919999626,131.95439919999626,131.95439919999626,131.95439919999626,131.95439919999626,131.95439919999626,131.95439919999626,5,0.6467294000030961,132.9663844999959,132.9663844999959,132.9663844999959,132.9663844999959,327.5,['return'],[1.706826399997226],,,,,194,2022-12-23_11h05.26.540,PEmem_Phase-02_retrieval,2022.2.4,None,
5.38534920634921,106.588235294118,106.588235294118,172.957983193277,singletons,308.714285714286,maps/google_map_1.png,None,objects/1/1_138.jpg,0.0,indoors,Napkin_Single.jpg,old,0,34,34,34,,,,,,,,,,,,,,,,,,,,,,,,,,,,,,,,,,,,,,,,,,,,,,,,,,194,2022-12-23_11h05.26.540,PEmem_Phase-02_retrieval,2022.2.4,None,
0.465245091162942,196.588235294118,286.588235294118,106.588235294118,high,26.6701007673024,maps/google_map_1.png,169.918134526815,objects/1/1_22.jpg,0.0,indoors,Vase_Decorative.jpg,old,0,35,35,35,0,0,0,0,,,,,,,,,,,,,,,,,,,,,,,137.4637556999951,134.93235649999406,134.93235649999406,134.93235649999406,134.93235649999406,134.93235649999406,134.93235649999406,134.93235649999406,134.93235649999406,134.93235649999406,5,2.519748700004129,137.81890790000034,137.81890790000034,137.81890790000034,137.81890790000034,26.0,['return'],[1.0611527000073693],,,,,194,2022-12-23_11h05.26.540,PEmem_Phase-02_retrieval,2022.2.4,None,
0.465245091162942,196.588235294118,286.588235294118,106.588235294118,high,26.6701007673024,maps/google_map_1.png,169.918134526815,objects/1/1_22.jpg,0.0,indoors,Vase_Decorative.jpg,old,0,35,35,35,,,,,,,,,,,,,,,,,,,,,,,,,,,,,,,,,,,,,,,,,,,,,,,,,,194,2022-12-23_11h05.26.540,PEmem_Phase-02_retrieval,2022.2.4,None,
4.27432731748544,196.588235294118,286.588235294118,106.588235294118,medium,245.025132849484,maps/google_map_1.png,48.4368975553661,objects/1/1_45.jpg,0.0,outdoors,Seashell_AlternateTellin.jpg,old,0,36,36,36,0,0,0,0,,,,,,,,,,,,,,,,,,,,,,,142.7302922999952,139.14930439999443,139.14930439999443,139.14930439999443,139.14930439999443,139.14930439999443,139.14930439999443,139.14930439999443,139.14930439999443,139.14930439999443,4,3.5660105000060867,143.08184139999503,143.08184139999503,143.08184139999503,143.08184139999503,116.5,['return'],[0.6835658000054536],,,,,194,2022-12-23_11h05.26.540,PEmem_Phase-02_retrieval,2022.2.4,None,
4.27432731748544,196.588235294118,286.588235294118,106.588235294118,medium,245.025132849484,maps/google_map_1.png,48.4368975553661,objects/1/1_45.jpg,0.0,outdoors,Seashell_AlternateTellin.jpg,old,0,36,36,36,,,,,,,,,,,,,,,,,,,,,,,,,,,,,,,,,,,,,,,,,,,,,,,,,,194,2022-12-23_11h05.26.540,PEmem_Phase-02_retrieval,2022.2.4,None,
4.52594244313645,106.588235294118,196.588235294118,16.5882352941177,high,259.448929861325,maps/google_map_1.png,152.860694567207,objects/1/1_58.jpg,0.0,outdoors,Cloud.jpg,old,0,37,37,37,0,0,0,0,,,,,,,,,,,,,,,,,,,,,,,144.86367739999696,144.03048399999534,144.03048399999534,144.03048399999534,144.03048399999534,144.03048399999534,144.03048399999534,144.03048399999534,144.03048399999534,144.03048399999534,4,0.8183140000037383,145.21545089999563,145.21545089999563,145.21545089999563,145.21545089999563,81.0,['return'],[0.5974262000017916],,,,,194,2022-12-23_11h05.26.540,PEmem_Phase-02_retrieval,2022.2.4,None,
4.52594244313645,106.588235294118,196.588235294118,16.5882352941177,high,259.448929861325,maps/google_map_1.png,152.860694567207,objects/1/1_58.jpg,0.0,outdoors,Cloud.jpg,old,0,37,37,37,,,,,,,,,,,,,,,,,,,,,,,,,,,,,,,,,,,,,,,,,,,,,,,,,,194,2022-12-23_11h05.26.540,PEmem_Phase-02_retrieval,2022.2.4,None,
None,None,None,None,None,None,maps/google_map_1.png,None,objects/2/2_47.jpg,None,indoors,Almond.jpg,new,0,38,38,38,,,,,,,,,,,,,,,,,,,,,,,,,,,146.8301624999949,146.08035209999798,146.08035209999798,146.08035209999798,146.08035209999798,146.08035209999798,146.08035209999798,146.08035209999798,146.08035209999798,146.08035209999798,4,0.7354267000046093,147.07181750000018,,,,,,,,,,,194,2022-12-23_11h05.26.540,PEmem_Phase-02_retrieval,2022.2.4,None,
None,None,None,None,None,None,maps/google_map_1.png,None,objects/2/2_107.jpg,None,indoors,Card_TwoSpade.jpg,new,0,39,39,39,,,,,,,,,,,,,,,,,,,,,,,,,,,149.1386332999973,147.33011879999685,147.33011879999685,147.33011879999685,147.33011879999685,147.33011879999685,147.33011879999685,147.33011879999685,147.33011879999685,147.33011879999685,1,1.7988638000024366,149.38039619999472,,,,,,,,,,,194,2022-12-23_11h05.26.540,PEmem_Phase-02_retrieval,2022.2.4,None,
3.28721990618805,196.588235294118,286.588235294118,106.588235294118,low,188.43935767957,maps/google_map_1.png,8.14887761454778,objects/1/1_56.jpg,0.0,indoors,Case_CD.jpg,old,0,40,40,40,0,0,0,0,,,,,,,,,,,,,,,,,,,,,,,150.78032939999684,149.6424568999937,149.6424568999937,149.6424568999937,149.6424568999937,149.6424568999937,149.6424568999937,149.6424568999937,149.6424568999937,149.6424568999937,5,1.1228409000032116,151.133164699997,151.133164699997,151.133164699997,151.133164699997,169.0,['return'],[0.6569386000046507],,,,,194,2022-12-23_11h05.26.540,PEmem_Phase-02_retrieval,2022.2.4,None,
3.28721990618805,196.588235294118,286.588235294118,106.588235294118,low,188.43935767957,maps/google_map_1.png,8.14887761454778,objects/1/1_56.jpg,0.0,indoors,Case_CD.jpg,old,0,40,40,40,,,,,,,,,,,,,,,,,,,,,,,,,,,,,,,,,,,,,,,,,,,,,,,,,,194,2022-12-23_11h05.26.540,PEmem_Phase-02_retrieval,2022.2.4,None,
1.90771760203764,106.588235294118,196.588235294118,16.5882352941177,low,109.35960776012,maps/google_map_1.png,2.77137246600208,objects/1/1_48.jpg,0.0,indoors,Corkscrew.jpg,old,0,41,41,41,0,0,0,0,,,,,,,,,,,,,,,,,,,,,,,152.9554050999941,152.04777699999977,152.04777699999977,152.04777699999977,152.04777699999977,152.04777699999977,152.04777699999977,152.04777699999977,152.04777699999977,152.04777699999977,4,0.8953528000056394,153.3060636999944,153.3060636999944,153.3060636999944,153.3060636999944,165.5,['return'],[0.8982998999999836],,,,,194,2022-12-23_11h05.26.540,PEmem_Phase-02_retrieval,2022.2.4,None,
1.90771760203764,106.588235294118,196.588235294118,16.5882352941177,low,109.35960776012,maps/google_map_1.png,2.77137246600208,objects/1/1_48.jpg,0.0,indoors,Corkscrew.jpg,old,0,41,41,41,,,,,,,,,,,,,,,,,,,,,,,,,,,,,,,,,,,,,,,,,,,,,,,,,,194,2022-12-23_11h05.26.540,PEmem_Phase-02_retrieval,2022.2.4,None,
1.97891146826048,106.588235294118,196.588235294118,16.5882352941177,low,113.440784804741,maps/google_map_1.png,6.85254951062351,objects/1/1_142.jpg,0.0,outdoors,Cannon.jpg,old,0,42,42,42,0,0,0,0,,,,,,,,,,,,,,,,,,,,,,,155.70536029999494,154.48025499999494,154.48025499999494,154.48025499999494,154.48025499999494,154.48025499999494,154.48025499999494,154.48025499999494,154.48025499999494,154.48025499999494,6,1.2099497000090196,156.05550889999722,156.05550889999722,156.05550889999722,156.05550889999722,142.0,['return'],[0.7130535000032978],,,,,194,2022-12-23_11h05.26.540,PEmem_Phase-02_retrieval,2022.2.4,None,
1.97891146826048,106.588235294118,196.588235294118,16.5882352941177,low,113.440784804741,maps/google_map_1.png,6.85254951062351,objects/1/1_142.jpg,0.0,outdoors,Cannon.jpg,old,0,42,42,42,,,,,,,,,,,,,,,,,,,,,,,,,,,,,,,,,,,,,,,,,,,,,,,,,,194,2022-12-23_11h05.26.540,PEmem_Phase-02_retrieval,2022.2.4,None,
None,None,None,None,None,None,maps/google_map_1.png,None,objects/2/2_106.jpg,None,outdoors,Sled.jpg,new,0,43,43,43,,,,,,,,,,,,,,,,,,,,,,,,,,,158.4054483,157.03794619999826,157.03794619999826,157.03794619999826,157.03794619999826,157.03794619999826,157.03794619999826,157.03794619999826,157.03794619999826,157.03794619999826,1,1.354590199996892,158.64698149999458,,,,,,,,,,,194,2022-12-23_11h05.26.540,PEmem_Phase-02_retrieval,2022.2.4,None,
None,None,None,None,None,None,maps/google_map_1.png,None,objects/2/2_83.jpg,None,outdoors,Bird_CanadianGoose.jpg,new,0,44,44,44,,,,,,,,,,,,,,,,,,,,,,,,,,,160.43045059999713,158.9073114999992,158.9073114999992,158.9073114999992,158.9073114999992,158.9073114999992,158.9073114999992,158.9073114999992,158.9073114999992,158.9073114999992,5,1.5130608000035863,160.67312469999888,,,,,,,,,,,194,2022-12-23_11h05.26.540,PEmem_Phase-02_retrieval,2022.2.4,None,
None,None,None,None,None,None,maps/google_map_1.png,None,objects/2/2_97.jpg,None,indoors,Cracker_Saltine.jpg,new,0,45,45,45,,,,,,,,,,,,,,,,,,,,,,,,,,,163.7386275999961,160.9383239999952,160.9383239999952,160.9383239999952,160.9383239999952,160.9383239999952,160.9383239999952,160.9383239999952,160.9383239999952,160.9383239999952,1,2.7843625000023167,163.9805894999954,,,,,,,,,,,194,2022-12-23_11h05.26.540,PEmem_Phase-02_retrieval,2022.2.4,None,
5.6893367560835,196.588235294118,286.588235294118,106.588235294118,medium,326.140323597143,maps/google_map_1.png,129.552088303026,objects/1/1_32.jpg,0.0,indoors,Skirt_Long.jpg,old,0,46,46,46,0,0,0,0,,,,,,,,,,,,,,,,,,,,,,,165.28864299999987,164.23896069999319,164.23896069999319,164.23896069999319,164.23896069999319,164.23896069999319,164.23896069999319,164.23896069999319,164.23896069999319,164.23896069999319,5,1.0421439000056125,165.64532399999734,165.64532399999734,165.64532399999734,165.64532399999734,29.5,['return'],[0.6374953000049572],,,,,194,2022-12-23_11h05.26.540,PEmem_Phase-02_retrieval,2022.2.4,None,
5.6893367560835,196.588235294118,286.588235294118,106.588235294118,medium,326.140323597143,maps/google_map_1.png,129.552088303026,objects/1/1_32.jpg,0.0,indoors,Skirt_Long.jpg,old,0,46,46,46,,,,,,,,,,,,,,,,,,,,,,,,,,,,,,,,,,,,,,,,,,,,,,,,,,194,2022-12-23_11h05.26.540,PEmem_Phase-02_retrieval,2022.2.4,None,
None,None,None,None,None,None,maps/google_map_1.png,None,objects/2/2_132.jpg,None,outdoors,Chimpanzee.jpg,new,0,47,47,47,,,,,,,,,,,,,,,,,,,,,,,,,,,168.53050959999382,166.55768859999807,166.55768859999807,166.55768859999807,166.55768859999807,166.55768859999807,166.55768859999807,166.55768859999807,166.55768859999807,166.55768859999807,1,1.9583540000021458,168.7723186000003,,,,,,,,,,,194,2022-12-23_11h05.26.540,PEmem_Phase-02_retrieval,2022.2.4,None,
5.40287027476807,196.588235294118,286.588235294118,106.588235294118,medium,309.718678171418,maps/google_map_1.png,113.1304428773,objects/1/1_132.jpg,0.0,indoors,PanCooking.jpg,old,0,48,48,48,0,0,0,0,,,,,,,,,,,,,,,,,,,,,,,169.66368409999995,169.03663219999726,169.03663219999726,169.03663219999726,169.03663219999726,169.03663219999726,169.03663219999726,169.03663219999726,169.03663219999726,169.03663219999726,1,0.6143626000048243,170.01503169999341,170.01503169999341,170.01503169999341,170.01503169999341,61.5,['return'],[0.8806151000026148],,,,,194,2022-12-23_11h05.26.540,PEmem_Phase-02_retrieval,2022.2.4,None,
5.40287027476807,196.588235294118,286.588235294118,106.588235294118,medium,309.718678171418,maps/google_map_1.png,113.1304428773,objects/1/1_132.jpg,0.0,indoors,PanCooking.jpg,old,0,48,48,48,,,,,,,,,,,,,,,,,,,,,,,,,,,,,,,,,,,,,,,,,,,,,,,,,,194,2022-12-23_11h05.26.540,PEmem_Phase-02_retrieval,2022.2.4,None,
1.75411951447246,196.588235294118,16.5882352941177,230.27731092437,singletons,100.554621848739,maps/google_map_1.png,None,objects/1/1_92.jpg,0.0,outdoors,Iguana.jpg,old,0,49,49,49,0,0,0,0,,,,,,,,,,,,,,,,,,,,,,,172.37203989999398,171.18241089999356,171.18241089999356,171.18241089999356,171.18241089999356,171.18241089999356,171.18241089999356,171.18241089999356,171.18241089999356,171.18241089999356,1,1.1737350999974296,172.72184299999935,172.72184299999935,172.72184299999935,172.72184299999935,313,['return'],[1.4700336000023526],,,,,194,2022-12-23_11h05.26.540,PEmem_Phase-02_retrieval,2022.2.4,None,
1.75411951447246,196.588235294118,16.5882352941177,230.27731092437,singletons,100.554621848739,maps/google_map_1.png,None,objects/1/1_92.jpg,0.0,outdoors,Iguana.jpg,old,0,49,49,49,,,,,,,,,,,,,,,,,,,,,,,,,,,,,,,,,,,,,,,,,,,,,,,,,,194,2022-12-23_11h05.26.540,PEmem_Phase-02_retrieval,2022.2.4,None,
None,None,None,None,None,None,maps/google_map_1.png,None,objects/2/2_105.jpg,None,indoors,Stool_Wood.jpg,new,0,50,50,50,,,,,,,,,,,,,,,,,,,,,,,,,,,175.0636069999964,174.4572033999939,174.4572033999939,174.4572033999939,174.4572033999939,174.4572033999939,174.4572033999939,174.4572033999939,174.4572033999939,174.4572033999939,1,0.5909164000040619,175.30560399999376,,,,,,,,,,,194,2022-12-23_11h05.26.540,PEmem_Phase-02_retrieval,2022.2.4,None,
4.84131834524669,106.588235294118,196.588235294118,16.5882352941177,high,277.527803230702,maps/google_map_1.png,170.939567936584,objects/1/1_95.jpg,0.0,indoors,Arm.jpg,old,0,51,51,51,0,0,0,0,,,,,,,,,,,,,,,,,,,,,,,176.49722409999958,175.5567923999988,175.5567923999988,175.5567923999988,175.5567923999988,175.5567923999988,175.5567923999988,175.5567923999988,175.5567923999988,175.5567923999988,4,0.9315526999998838,176.84651969999686,176.84651969999686,176.84651969999686,176.84651969999686,278.5,['return'],[1.0624144000030356],,,,,194,2022-12-23_11h05.26.540,PEmem_Phase-02_retrieval,2022.2.4,None,
4.84131834524669,106.588235294118,196.588235294118,16.5882352941177,high,277.527803230702,maps/google_map_1.png,170.939567936584,objects/1/1_95.jpg,0.0,indoors,Arm.jpg,old,0,51,51,51,,,,,,,,,,,,,,,,,,,,,,,,,,,,,,,,,,,,,,,,,,,,,,,,,,194,2022-12-23_11h05.26.540,PEmem_Phase-02_retrieval,2022.2.4,None,
0.529243665397953,196.588235294118,286.588235294118,106.588235294118,high,30.3388088444686,maps/google_map_1.png,166.249426449649,objects/1/1_73.jpg,0.0,outdoors,Teardrop.jpg,old,0,52,52,52,0,0,0,0,,,,,,,,,,,,,,,,,,,,,,,179.09729479999805,178.18868689999363,178.18868689999363,178.18868689999363,178.18868689999363,178.18868689999363,178.18868689999363,178.18868689999363,178.18868689999363,178.18868689999363,5,0.893107299998519,179.44830679999723,179.44830679999723,179.44830679999723,179.44830679999723,213.5,['return'],[0.7349249000035343],,,,,194,2022-12-23_11h05.26.540,PEmem_Phase-02_retrieval,2022.2.4,None,
0.529243665397953,196.588235294118,286.588235294118,106.588235294118,high,30.3388088444686,maps/google_map_1.png,166.249426449649,objects/1/1_73.jpg,0.0,outdoors,Teardrop.jpg,old,0,52,52,52,,,,,,,,,,,,,,,,,,,,,,,,,,,,,,,,,,,,,,,,,,,,,,,,,,194,2022-12-23_11h05.26.540,PEmem_Phase-02_retrieval,2022.2.4,None,
None,None,None,None,None,None,maps/google_map_1.png,None,objects/2/2_56.jpg,None,outdoors,Arch_Triomphe.jpg,new,0,53,53,53,,,,,,,,,,,,,,,,,,,,,,,,,,,181.67228829999658,180.43999889999395,180.43999889999395,180.43999889999395,180.43999889999395,180.43999889999395,180.43999889999395,180.43999889999395,180.43999889999395,180.43999889999395,1,1.2171451000031084,181.91408799999772,,,,,,,,,,,194,2022-12-23_11h05.26.540,PEmem_Phase-02_retrieval,2022.2.4,None,
4.28019234360411,106.588235294118,286.588235294118,145.806722689076,singletons,245.361344537815,maps/google_map_1.png,None,objects/1/1_39.jpg,0.0,indoors,Clip_Binder.jpg,old,0,54,54,54,0,0,0,0,,,,,,,,,,,,,,,,,,,,,,,186.67252869999356,182.17403899999772,182.17403899999772,182.17403899999772,182.17403899999772,182.17403899999772,182.17403899999772,182.17403899999772,182.17403899999772,182.17403899999772,5,4.483377000004111,187.02496389999578,187.02496389999578,187.02496389999578,187.02496389999578,261.0,['return'],[2.528272300005483],,,,,194,2022-12-23_11h05.26.540,PEmem_Phase-02_retrieval,2022.2.4,None,
4.28019234360411,106.588235294118,286.588235294118,145.806722689076,singletons,245.361344537815,maps/google_map_1.png,None,objects/1/1_39.jpg,0.0,indoors,Clip_Binder.jpg,old,0,54,54,54,,,,,,,,,,,,,,,,,,,,,,,,,,,,,,,,,,,,,,,,,,,,,,,,,,194,2022-12-23_11h05.26.540,PEmem_Phase-02_retrieval,2022.2.4,None,
None,None,None,None,None,None,maps/google_map_1.png,None,objects/2/2_35.jpg,None,indoors,Comb_1.jpg,new,0,55,55,55,,,,,,,,,,,,,,,,,,,,,,,,,,,190.94753579999815,189.82368469999346,189.82368469999346,189.82368469999346,189.82368469999346,189.82368469999346,189.82368469999346,189.82368469999346,189.82368469999346,189.82368469999346,1,1.1154248000020743,191.18909789999452,,,,,,,,,,,194,2022-12-23_11h05.26.540,PEmem_Phase-02_retrieval,2022.2.4,None,
None,None,None,None,None,None,maps/google_map_1.png,None,objects/2/2_113.jpg,None,outdoors,Leaf_Yellow.jpg,new,0,56,56,56,,,,,,,,,,,,,,,,,,,,,,,,,,,191.98895459999767,191.44846489999327,191.44846489999327,191.44846489999327,191.44846489999327,191.44846489999327,191.44846489999327,191.44846489999327,191.44846489999327,191.44846489999327,1,0.5245301000031759,192.23090019999654,,,,,,,,,,,194,2022-12-23_11h05.26.540,PEmem_Phase-02_retrieval,2022.2.4,None,
1.27939571389104,106.588235294118,196.588235294118,16.5882352941177,low,73.341155573372,maps/google_map_1.png,33.2470797207457,objects/1/1_89.jpg,0.0,outdoors,Hubcap.jpg,old,0,57,57,57,0,0,0,0,,,,,,,,,,,,,,,,,,,,,,,193.48903549999523,192.4822903999957,192.4822903999957,192.4822903999957,192.4822903999957,192.4822903999957,192.4822903999957,192.4822903999957,192.4822903999957,192.4822903999957,5,0.9908912000028067,193.84370749999653,193.84370749999653,193.84370749999653,193.84370749999653,312.5,['return'],[1.487577700005204],,,,,194,2022-12-23_11h05.26.540,PEmem_Phase-02_retrieval,2022.2.4,None,
1.27939571389104,106.588235294118,196.588235294118,16.5882352941177,low,73.341155573372,maps/google_map_1.png,33.2470797207457,objects/1/1_89.jpg,0.0,outdoors,Hubcap.jpg,old,0,57,57,57,,,,,,,,,,,,,,,,,,,,,,,,,,,,,,,,,,,,,,,,,,,,,,,,,,194,2022-12-23_11h05.26.540,PEmem_Phase-02_retrieval,2022.2.4,None,
3.1790035196177,196.588235294118,286.588235294118,106.588235294118,low,182.235870551333,maps/google_map_1.png,14.3523647427846,objects/1/1_24.jpg,0.0,outdoors,Igloo.jpg,old,0,58,58,58,0,0,0,0,,,,,,,,,,,,,,,,,,,,,,,198.66413389999798,195.59856359999685,195.59856359999685,195.59856359999685,195.59856359999685,195.59856359999685,195.59856359999685,195.59856359999685,195.59856359999685,195.59856359999685,5,3.049830000003567,199.01539679999405,199.01539679999405,199.01539679999405,199.01539679999405,154.5,['return'],[0.8906835000016144],,,,,194,2022-12-23_11h05.26.540,PEmem_Phase-02_retrieval,2022.2.4,None,
3.1790035196177,196.588235294118,286.588235294118,106.588235294118,low,182.235870551333,maps/google_map_1.png,14.3523647427846,objects/1/1_24.jpg,0.0,outdoors,Igloo.jpg,old,0,58,58,58,,,,,,,,,,,,,,,,,,,,,,,,,,,,,,,,,,,,,,,,,,,,,,,,,,194,2022-12-23_11h05.26.540,PEmem_Phase-02_retrieval,2022.2.4,None,
4.82372719583087,106.588235294118,196.588235294118,16.5882352941177,high,276.519393391579,maps/google_map_1.png,169.931158097461,objects/1/1_40.jpg,0.0,outdoors,LicensePlate.jpg,old,0,59,59,59,0,0,0,0,,,,,,,,,,,,,,,,,,,,,,,202.00589319999563,200.1726381999979,200.1726381999979,200.1726381999979,200.1726381999979,200.1726381999979,200.1726381999979,200.1726381999979,200.1726381999979,200.1726381999979,6,1.8171896999992896,202.368962499997,202.368962499997,202.368962499997,202.368962499997,271.5,['return'],[1.9739399000027333],,,,,194,2022-12-23_11h05.26.540,PEmem_Phase-02_retrieval,2022.2.4,None,
4.82372719583087,106.588235294118,196.588235294118,16.5882352941177,high,276.519393391579,maps/google_map_1.png,169.931158097461,objects/1/1_40.jpg,0.0,outdoors,LicensePlate.jpg,old,0,59,59,59,,,,,,,,,,,,,,,,,,,,,,,,,,,,,,,,,,,,,,,,,,,,,,,,,,194,2022-12-23_11h05.26.540,PEmem_Phase-02_retrieval,2022.2.4,None,
2.85927637721755,106.588235294118,286.588235294118,311.731092436975,singletons,163.90756302521,maps/google_map_1.png,None,objects/1/1_19.jpg,0.0,outdoors,Birdhouse.jpg,old,0,60,60,60,0,0,0,0,,,,,,,,,,,,,,,,,,,,,,,206.58090159999847,204.6138981999975,204.6138981999975,204.6138981999975,204.6138981999975,204.6138981999975,204.6138981999975,204.6138981999975,204.6138981999975,204.6138981999975,4,1.9540284000031534,206.93148959999962,206.93148959999962,206.93148959999962,206.93148959999962,97.0,['return'],[0.7588315000029979],,,,,194,2022-12-23_11h05.26.540,PEmem_Phase-02_retrieval,2022.2.4,None,
2.85927637721755,106.588235294118,286.588235294118,311.731092436975,singletons,163.90756302521,maps/google_map_1.png,None,objects/1/1_19.jpg,0.0,outdoors,Birdhouse.jpg,old,0,60,60,60,,,,,,,,,,,,,,,,,,,,,,,,,,,,,,,,,,,,,,,,,,,,,,,,,,194,2022-12-23_11h05.26.540,PEmem_Phase-02_retrieval,2022.2.4,None,
None,None,None,None,None,None,maps/google_map_1.png,None,objects/2/2_119.jpg,None,outdoors,Lobster.jpg,new,0,61,61,61,,,,,,,,,,,,,,,,,,,,,,,,,,,209.06418949999352,207.9559455999988,207.9559455999988,207.9559455999988,207.9559455999988,207.9559455999988,207.9559455999988,207.9559455999988,207.9559455999988,207.9559455999988,1,1.0946999000007054,209.30599889999576,,,,,,,,,,,194,2022-12-23_11h05.26.540,PEmem_Phase-02_retrieval,2022.2.4,None,
1.28048085901027,106.588235294118,106.588235294118,275.529411764706,singletons,73.4033613445378,maps/google_map_1.png,None,objects/1/1_101.jpg,0.0,indoors,Accordion.jpg,old,0,62,62,62,0,0,0,0,,,,,,,,,,,,,,,,,,,,,,,210.73096379999333,209.55797170000005,209.55797170000005,209.55797170000005,209.55797170000005,209.55797170000005,209.55797170000005,209.55797170000005,209.55797170000005,209.55797170000005,5,1.1594728000054602,211.0816377999945,211.0816377999945,211.0816377999945,211.0816377999945,127.0,['return'],[1.0723118000023533],,,,,194,2022-12-23_11h05.26.540,PEmem_Phase-02_retrieval,2022.2.4,None,
1.28048085901027,106.588235294118,106.588235294118,275.529411764706,singletons,73.4033613445378,maps/google_map_1.png,None,objects/1/1_101.jpg,0.0,indoors,Accordion.jpg,old,0,62,62,62,,,,,,,,,,,,,,,,,,,,,,,,,,,,,,,,,,,,,,,,,,,,,,,,,,194,2022-12-23_11h05.26.540,PEmem_Phase-02_retrieval,2022.2.4,None,
None,None,None,None,None,None,maps/google_map_1.png,None,objects/2/2_12.jpg,None,outdoors,Butterfly.jpg,new,0,63,63,63,,,,,,,,,,,,,,,,,,,,,,,,,,,213.53098569999565,212.41585919999488,212.41585919999488,212.41585919999488,212.41585919999488,212.41585919999488,212.41585919999488,212.41585919999488,212.41585919999488,212.41585919999488,5,1.0990662000040174,213.77242999999726,,,,,,,,,,,194,2022-12-23_11h05.26.540,PEmem_Phase-02_retrieval,2022.2.4,None,
3.70261028842883,196.588235294118,286.588235294118,106.588235294118,low,212.251545196557,maps/google_map_1.png,15.6633099024395,objects/1/1_80.jpg,0.0,indoors,Tofu.jpg,old,0,64,64,64,0,0,0,0,,,,,,,,,,,,,,,,,,,,,,,215.4059941999949,214.02330969999457,214.02330969999457,214.02330969999457,214.02330969999457,214.02330969999457,214.02330969999457,214.02330969999457,214.02330969999457,214.02330969999457,6,1.3724514999994426,215.75767759999871,215.75767759999871,215.75767759999871,215.75767759999871,179.5,['return'],[1.4139460000005784],,,,,194,2022-12-23_11h05.26.540,PEmem_Phase-02_retrieval,2022.2.4,None,
3.70261028842883,196.588235294118,286.588235294118,106.588235294118,low,212.251545196557,maps/google_map_1.png,15.6633099024395,objects/1/1_80.jpg,0.0,indoors,Tofu.jpg,old,0,64,64,64,,,,,,,,,,,,,,,,,,,,,,,,,,,,,,,,,,,,,,,,,,,,,,,,,,194,2022-12-23_11h05.26.540,PEmem_Phase-02_retrieval,2022.2.4,None,
None,None,None,None,None,None,maps/google_map_1.png,None,objects/2/2_62.jpg,None,indoors,PillBottle_Closed.jpg,new,0,65,65,65,,,,,,,,,,,,,,,,,,,,,,,,,,,223.4475844999979,217.44033189999755,217.44033189999755,217.44033189999755,217.44033189999755,217.44033189999755,217.44033189999755,217.44033189999755,217.44033189999755,217.44033189999755,4,5.993436299999303,223.6894067999965,,,,,,,,,,,194,2022-12-23_11h05.26.540,PEmem_Phase-02_retrieval,2022.2.4,None,
None,None,None,None,None,None,maps/google_map_1.png,None,objects/1/1_93.jpg,None,outdoors,Oars.jpg,new,0,66,66,66,,,,,,,,,,,,,,,,,,,,,,,,,,,226.12272689999372,223.9489603999973,223.9489603999973,223.9489603999973,223.9489603999973,223.9489603999973,223.9489603999973,223.9489603999973,223.9489603999973,223.9489603999973,1,2.1573631999999634,226.36453069999698,,,,,,,,,,,194,2022-12-23_11h05.26.540,PEmem_Phase-02_retrieval,2022.2.4,None,
None,None,None,None,None,None,maps/google_map_1.png,None,objects/2/2_127.jpg,None,outdoors,Seal_Toy.jpg,new,0,67,67,67,,,,,,,,,,,,,,,,,,,,,,,,,,,227.34872539999924,226.6168630999964,226.6168630999964,226.6168630999964,226.6168630999964,226.6168630999964,226.6168630999964,226.6168630999964,226.6168630999964,226.6168630999964,1,0.7209950000033132,227.58946589999687,,,,,,,,,,,194,2022-12-23_11h05.26.540,PEmem_Phase-02_retrieval,2022.2.4,None,
3.1847430795494,196.588235294118,286.588235294118,106.588235294118,low,182.564889910475,maps/google_map_1.png,14.0233453836423,objects/1/1_41.jpg,0.0,indoors,FloppyDisk.jpg,old,0,68,68,68,0,0,0,0,,,,,,,,,,,,,,,,,,,,,,,228.86432579999382,227.84850079999887,227.84850079999887,227.84850079999887,227.84850079999887,227.84850079999887,227.84850079999887,227.84850079999887,227.84850079999887,227.84850079999887,5,1.0054606000048807,229.2157733999993,229.2157733999993,229.2157733999993,229.2157733999993,72.5,['return'],[0.8218964000043343],,,,,194,2022-12-23_11h05.26.540,PEmem_Phase-02_retrieval,2022.2.4,None,
3.1847430795494,196.588235294118,286.588235294118,106.588235294118,low,182.564889910475,maps/google_map_1.png,14.0233453836423,objects/1/1_41.jpg,0.0,indoors,FloppyDisk.jpg,old,0,68,68,68,,,,,,,,,,,,,,,,,,,,,,,,,,,,,,,,,,,,,,,,,,,,,,,,,,194,2022-12-23_11h05.26.540,PEmem_Phase-02_retrieval,2022.2.4,None,
1.96677191954934,106.588235294118,196.588235294118,16.5882352941177,low,112.744887107924,maps/google_map_1.png,6.15665181380602,objects/1/1_3.jpg,0.0,outdoors,Pig.jpg,old,0,69,69,69,0,0,0,0,,,,,,,,,,,,,,,,,,,,,,,231.21429699999862,230.30657529999735,230.30657529999735,230.30657529999735,230.30657529999735,230.30657529999735,230.30657529999735,230.30657529999735,230.30657529999735,230.30657529999735,6,0.8929078000073787,231.56486049999512,231.56486049999512,231.56486049999512,231.56486049999512,155.0,['return'],[1.1212893000047188],,,,,194,2022-12-23_11h05.26.540,PEmem_Phase-02_retrieval,2022.2.4,None,
1.96677191954934,106.588235294118,196.588235294118,16.5882352941177,low,112.744887107924,maps/google_map_1.png,6.15665181380602,objects/1/1_3.jpg,0.0,outdoors,Pig.jpg,old,0,69,69,69,,,,,,,,,,,,,,,,,,,,,,,,,,,,,,,,,,,,,,,,,,,,,,,,,,194,2022-12-23_11h05.26.540,PEmem_Phase-02_retrieval,2022.2.4,None,
0.227950513538749,106.588235294118,286.588235294118,10.0504201680672,singletons,13.0672268907563,maps/google_map_1.png,None,objects/1/1_119.jpg,0.0,outdoors,Archery_ArrowsBows.jpg,old,0,70,70,70,0,0,0,0,,,,,,,,,,,,,,,,,,,,,,,233.6812146999946,232.96587569999974,232.96587569999974,232.96587569999974,232.96587569999974,232.96587569999974,232.96587569999974,232.96587569999974,232.96587569999974,232.96587569999974,6,0.6999348000026657,234.03211989999545,234.03211989999545,234.03211989999545,234.03211989999545,296.5,['return'],[1.239625000001979],,,,,194,2022-12-23_11h05.26.540,PEmem_Phase-02_retrieval,2022.2.4,None,
0.227950513538749,106.588235294118,286.588235294118,10.0504201680672,singletons,13.0672268907563,maps/google_map_1.png,None,objects/1/1_119.jpg,0.0,outdoors,Archery_ArrowsBows.jpg,old,0,70,70,70,,,,,,,,,,,,,,,,,,,,,,,,,,,,,,,,,,,,,,,,,,,,,,,,,,194,2022-12-23_11h05.26.540,PEmem_Phase-02_retrieval,2022.2.4,None,
None,None,None,None,None,None,maps/google_map_1.png,None,objects/2/2_134.jpg,None,outdoors,Scorpion.jpg,new,0,71,71,71,,,,,,,,,,,,,,,,,,,,,,,,,,,236.88948929999606,235.54049069999746,235.54049069999746,235.54049069999746,235.54049069999746,235.54049069999746,235.54049069999746,235.54049069999746,235.54049069999746,235.54049069999746,1,1.335077600000659,237.13119489999372,,,,,,,,,,,194,2022-12-23_11h05.26.540,PEmem_Phase-02_retrieval,2022.2.4,None,
None,None,None,None,None,None,maps/google_map_1.png,None,objects/2/2_1.jpg,None,indoors,Cast.jpg,new,0,72,72,72,,,,,,,,,,,,,,,,,,,,,,,,,,,238.42297459999827,237.38273049999407,237.38273049999407,237.38273049999407,237.38273049999407,237.38273049999407,237.38273049999407,237.38273049999407,237.38273049999407,237.38273049999407,1,1.0318532000019331,238.66450029999396,,,,,,,,,,,194,2022-12-23_11h05.26.540,PEmem_Phase-02_retrieval,2022.2.4,None,
None,None,None,None,None,None,maps/google_map_1.png,None,objects/2/2_40.jpg,None,outdoors,TrapAnimal.jpg,new,0,73,73,73,,,,,,,,,,,,,,,,,,,,,,,,,,,239.51456869999674,238.92348199999833,238.92348199999833,238.92348199999833,238.92348199999833,238.92348199999833,238.92348199999833,238.92348199999833,238.92348199999833,238.92348199999833,1,0.5768827000065357,239.75638079999771,,,,,,,,,,,194,2022-12-23_11h05.26.540,PEmem_Phase-02_retrieval,2022.2.4,None,
6.06234695739797,196.588235294118,286.588235294118,106.588235294118,high,347.523073990966,maps/google_map_1.png,150.934838696849,objects/1/1_72.jpg,0.0,outdoors,Sheep.jpg,old,0,74,74,74,0,0,0,0,,,,,,,,,,,,,,,,,,,,,,,240.6646127999993,240.01684209999803,240.01684209999803,240.01684209999803,240.01684209999803,240.01684209999803,240.01684209999803,240.01684209999803,240.01684209999803,240.01684209999803,1,0.6382076000008965,241.01505629999883,241.01505629999883,241.01505629999883,241.01505629999883,216.0,['return'],[1.1872646000047098],,,,,194,2022-12-23_11h05.26.540,PEmem_Phase-02_retrieval,2022.2.4,None,
6.06234695739797,196.588235294118,286.588235294118,106.588235294118,high,347.523073990966,maps/google_map_1.png,150.934838696849,objects/1/1_72.jpg,0.0,outdoors,Sheep.jpg,old,0,74,74,74,,,,,,,,,,,,,,,,,,,,,,,,,,,,,,,,,,,,,,,,,,,,,,,,,,194,2022-12-23_11h05.26.540,PEmem_Phase-02_retrieval,2022.2.4,None,
3.66746988636194,106.588235294118,196.588235294118,16.5882352941177,medium,210.237127243678,maps/google_map_1.png,103.64889194956,objects/1/1_28.jpg,0.0,outdoors,Boat_Sail.jpg,old,0,75,75,75,0,0,0,0,,,,,,,,,,,,,,,,,,,,,,,243.51471509999828,242.4722597,242.4722597,242.4722597,242.4722597,242.4722597,242.4722597,242.4722597,242.4722597,242.4722597,4,1.0323022000011406,243.86805999999342,243.86805999999342,243.86805999999342,243.86805999999342,265.5,['return'],[0.63573069999984],,,,,194,2022-12-23_11h05.26.540,PEmem_Phase-02_retrieval,2022.2.4,None,
3.66746988636194,106.588235294118,196.588235294118,16.5882352941177,medium,210.237127243678,maps/google_map_1.png,103.64889194956,objects/1/1_28.jpg,0.0,outdoors,Boat_Sail.jpg,old,0,75,75,75,,,,,,,,,,,,,,,,,,,,,,,,,,,,,,,,,,,,,,,,,,,,,,,,,,194,2022-12-23_11h05.26.540,PEmem_Phase-02_retrieval,2022.2.4,None,
5.60310836795936,196.588235294118,286.588235294118,106.588235294118,medium,321.197294978562,maps/google_map_1.png,124.609059684444,objects/1/1_64.jpg,0.0,indoors,Calculator.jpg,old,0,76,76,76,0,0,0,0,,,,,,,,,,,,,,,,,,,,,,,246.21466399999917,244.77403959999356,244.77403959999356,244.77403959999356,244.77403959999356,244.77403959999356,244.77403959999356,244.77403959999356,244.77403959999356,244.77403959999356,6,1.4300364000009722,246.56576929999574,246.56576929999574,246.56576929999574,246.56576929999574,289.5,['return'],[2.3400576999993064],,,,,194,2022-12-23_11h05.26.540,PEmem_Phase-02_retrieval,2022.2.4,None,
5.60310836795936,196.588235294118,286.588235294118,106.588235294118,medium,321.197294978562,maps/google_map_1.png,124.609059684444,objects/1/1_64.jpg,0.0,indoors,Calculator.jpg,old,0,76,76,76,,,,,,,,,,,,,,,,,,,,,,,,,,,,,,,,,,,,,,,,,,,,,,,,,,194,2022-12-23_11h05.26.540,PEmem_Phase-02_retrieval,2022.2.4,None,
3.59756981419156,196.588235294118,286.588235294118,106.588235294118,low,206.230116737096,maps/google_map_1.png,9.64188144297793,objects/1/1_113.jpg,0.0,indoors,Toilet.jpg,old,0,77,77,77,0,0,0,0,,,,,,,,,,,,,,,,,,,,,,,250.21458359999815,249.17287399999623,249.17287399999623,249.17287399999623,249.17287399999623,249.17287399999623,249.17287399999623,249.17287399999623,249.17287399999623,249.17287399999623,6,1.0304027000020142,250.56578139999328,250.56578139999328,250.56578139999328,250.56578139999328,170.0,['return'],[0.8165201000010711],,,,,194,2022-12-23_11h05.26.540,PEmem_Phase-02_retrieval,2022.2.4,None,
3.59756981419156,196.588235294118,286.588235294118,106.588235294118,low,206.230116737096,maps/google_map_1.png,9.64188144297793,objects/1/1_113.jpg,0.0,indoors,Toilet.jpg,old,0,77,77,77,,,,,,,,,,,,,,,,,,,,,,,,,,,,,,,,,,,,,,,,,,,,,,,,,,194,2022-12-23_11h05.26.540,PEmem_Phase-02_retrieval,2022.2.4,None,
None,None,None,None,None,None,maps/google_map_1.png,None,objects/2/2_37.jpg,None,indoors,Spoon_WoodenLight.jpg,new,0,78,78,78,,,,,,,,,,,,,,,,,,,,,,,,,,,252.80634219999774,251.64140749999933,251.64140749999933,251.64140749999933,251.64140749999933,251.64140749999933,251.64140749999933,251.64140749999933,251.64140749999933,251.64140749999933,1,1.153848600006313,253.04817689999618,,,,,,,,,,,194,2022-12-23_11h05.26.540,PEmem_Phase-02_retrieval,2022.2.4,None,
1.2278543417367,106.588235294118,106.588235294118,106.588235294118,singletons,70.3865546218487,maps/google_map_1.png,None,objects/1/1_31.jpg,0.0,indoors,RugRoled.jpg,old,0,79,79,79,0,0,0,0,,,,,,,,,,,,,,,,,,,,,,,254.48971909999818,253.31050109999342,253.31050109999342,253.31050109999342,253.31050109999342,253.31050109999342,253.31050109999342,253.31050109999342,253.31050109999342,253.31050109999342,5,1.168410500009486,254.8447773999942,254.8447773999942,254.8447773999942,254.8447773999942,144.5,['return'],[0.9182445999977062],,,,,194,2022-12-23_11h05.26.540,PEmem_Phase-02_retrieval,2022.2.4,None,
1.2278543417367,106.588235294118,106.588235294118,106.588235294118,singletons,70.3865546218487,maps/google_map_1.png,None,objects/1/1_31.jpg,0.0,indoors,RugRoled.jpg,old,0,79,79,79,,,,,,,,,,,,,,,,,,,,,,,,,,,,,,,,,,,,,,,,,,,,,,,,,,194,2022-12-23_11h05.26.540,PEmem_Phase-02_retrieval,2022.2.4,None,
2.38563772175537,106.588235294118,16.5882352941177,106.588235294118,singletons,136.756302521008,maps/google_map_1.png,None,objects/1/1_99.jpg,0.0,indoors,Toy_DollHomeMade.jpg,old,0,80,80,80,0,0,0,0,,,,,,,,,,,,,,,,,,,,,,,257.1564655999973,256.02417619999324,256.02417619999324,256.02417619999324,256.02417619999324,256.02417619999324,256.02417619999324,256.02417619999324,256.02417619999324,256.02417619999324,6,1.1231838000021526,257.50856360000034,257.50856360000034,257.50856360000034,257.50856360000034,159.5,['return'],[2.344562500002212],,,,,194,2022-12-23_11h05.26.540,PEmem_Phase-02_retrieval,2022.2.4,None,
2.38563772175537,106.588235294118,16.5882352941177,106.588235294118,singletons,136.756302521008,maps/google_map_1.png,None,objects/1/1_99.jpg,0.0,indoors,Toy_DollHomeMade.jpg,old,0,80,80,80,,,,,,,,,,,,,,,,,,,,,,,,,,,,,,,,,,,,,,,,,,,,,,,,,,194,2022-12-23_11h05.26.540,PEmem_Phase-02_retrieval,2022.2.4,None,
None,None,None,None,None,None,maps/google_map_1.png,None,objects/2/2_6.jpg,None,outdoors,Bicycle_Kids.jpg,new,0,81,81,81,,,,,,,,,,,,,,,,,,,,,,,,,,,261.4563899999994,260.1306463000001,260.1306463000001,260.1306463000001,260.1306463000001,260.1306463000001,260.1306463000001,260.1306463000001,260.1306463000001,260.1306463000001,1,1.3116851000013412,261.6981818999993,,,,,,,,,,,194,2022-12-23_11h05.26.540,PEmem_Phase-02_retrieval,2022.2.4,None,
None,None,None,None,None,None,maps/google_map_1.png,None,objects/2/2_17.jpg,None,outdoors,ManholeCover.jpg,new,0,82,82,82,,,,,,,,,,,,,,,,,,,,,,,,,,,262.5230980999986,261.96141139999963,261.96141139999963,261.96141139999963,261.96141139999963,261.96141139999963,261.96141139999963,261.96141139999963,261.96141139999963,261.96141139999963,1,0.5464289000010467,262.7649769999989,,,,,,,,,,,194,2022-12-23_11h05.26.540,PEmem_Phase-02_retrieval,2022.2.4,None,
None,None,None,None,None,None,maps/google_map_1.png,None,objects/2/2_46.jpg,None,indoors,Blanket.jpg,new,0,83,83,83,,,,,,,,,,,,,,,,,,,,,,,,,,,263.5931965999989,263.02407559999847,263.02407559999847,263.02407559999847,263.02407559999847,263.02407559999847,263.02407559999847,263.02407559999847,263.02407559999847,263.02407559999847,1,0.5599554000073113,263.8397904999947,,,,,,,,,,,194,2022-12-23_11h05.26.540,PEmem_Phase-02_retrieval,2022.2.4,None,
1.74190397752487,106.588235294118,196.588235294118,16.5882352941177,low,99.8543681383682,maps/google_map_1.png,6.73386715574942,objects/1/1_109.jpg,0.0,outdoors,Camel_Dromedary.jpg,old,0,84,84,84,0,0,0,0,,,,,,,,,,,,,,,,,,,,,,,264.97318419999647,264.09189689999766,264.09189689999766,264.09189689999766,264.09189689999766,264.09189689999766,264.09189689999766,264.09189689999766,264.09189689999766,264.09189689999766,5,0.8674271000054432,265.3299490999998,265.3299490999998,265.3299490999998,265.3299490999998,60.5,['return'],[0.7966656000062358],,,,,194,2022-12-23_11h05.26.540,PEmem_Phase-02_retrieval,2022.2.4,None,
1.74190397752487,106.588235294118,196.588235294118,16.5882352941177,low,99.8543681383682,maps/google_map_1.png,6.73386715574942,objects/1/1_109.jpg,0.0,outdoors,Camel_Dromedary.jpg,old,0,84,84,84,,,,,,,,,,,,,,,,,,,,,,,,,,,,,,,,,,,,,,,,,,,,,,,,,,194,2022-12-23_11h05.26.540,PEmem_Phase-02_retrieval,2022.2.4,None,
1.78332170123487,106.588235294118,196.588235294118,16.5882352941177,low,102.228632554865,maps/google_map_1.png,4.35960273925228,objects/1/1_10.jpg,0.0,outdoors,Fish_Rockbass.jpg,old,0,85,85,85,0,0,0,0,,,,,,,,,,,,,,,,,,,,,,,267.2148522999996,266.3894147999963,266.3894147999963,266.3894147999963,266.3894147999963,266.3894147999963,266.3894147999963,266.3894147999963,266.3894147999963,266.3894147999963,6,0.8104581000006874,267.5704119000002,267.5704119000002,267.5704119000002,267.5704119000002,134.0,['return'],[1.052284300007159],,,,,194,2022-12-23_11h05.26.540,PEmem_Phase-02_retrieval,2022.2.4,None,
1.78332170123487,106.588235294118,196.588235294118,16.5882352941177,low,102.228632554865,maps/google_map_1.png,4.35960273925228,objects/1/1_10.jpg,0.0,outdoors,Fish_Rockbass.jpg,old,0,85,85,85,,,,,,,,,,,,,,,,,,,,,,,,,,,,,,,,,,,,,,,,,,,,,,,,,,194,2022-12-23_11h05.26.540,PEmem_Phase-02_retrieval,2022.2.4,None,
None,None,None,None,None,None,maps/google_map_1.png,None,objects/2/2_36.jpg,None,outdoors,Window.jpg,new,0,86,86,86,,,,,,,,,,,,,,,,,,,,,,,,,,,270.30654219999997,268.88268699999753,268.88268699999753,268.88268699999753,268.88268699999753,268.88268699999753,268.88268699999753,268.88268699999753,268.88268699999753,268.88268699999753,1,1.4157844000001205,270.54812619999575,,,,,,,,,,,194,2022-12-23_11h05.26.540,PEmem_Phase-02_retrieval,2022.2.4,None,
None,None,None,None,None,None,maps/google_map_1.png,None,objects/2/2_108.jpg,None,indoors,Tube_Paint.jpg,new,0,87,87,87,,,,,,,,,,,,,,,,,,,,,,,,,,,271.2981878999999,270.8078883999988,270.8078883999988,270.8078883999988,270.8078883999988,270.8078883999988,270.8078883999988,270.8078883999988,270.8078883999988,270.8078883999988,1,0.4815946000016993,271.5398936999991,,,,,,,,,,,194,2022-12-23_11h05.26.540,PEmem_Phase-02_retrieval,2022.2.4,None,
4.15812335713053,106.588235294118,196.588235294118,16.5882352941177,medium,238.363759325954,maps/google_map_1.png,131.775524031837,objects/1/1_130.jpg,0.0,indoors,ToothBrush.jpg,old,0,88,88,88,0,0,0,0,,,,,,,,,,,,,,,,,,,,,,,272.1982089999947,271.7885793999958,271.7885793999958,271.7885793999958,271.7885793999958,271.7885793999958,271.7885793999958,271.7885793999958,271.7885793999958,271.7885793999958,1,0.39697590000287164,272.5503682999988,272.5503682999988,272.5503682999988,272.5503682999988,203.0,['return'],[1.6457572000072105],,,,,194,2022-12-23_11h05.26.540,PEmem_Phase-02_retrieval,2022.2.4,None,
4.15812335713053,106.588235294118,196.588235294118,16.5882352941177,medium,238.363759325954,maps/google_map_1.png,131.775524031837,objects/1/1_130.jpg,0.0,indoors,ToothBrush.jpg,old,0,88,88,88,,,,,,,,,,,,,,,,,,,,,,,,,,,,,,,,,,,,,,,,,,,,,,,,,,194,2022-12-23_11h05.26.540,PEmem_Phase-02_retrieval,2022.2.4,None,
4.75383099906629,196.588235294118,16.5882352941177,76.4201680672269,singletons,272.512605042017,maps/google_map_1.png,None,objects/1/1_137.jpg,0.0,indoors,Tape_Clear.jpg,old,0,89,89,89,0,0,0,0,,,,,,,,,,,,,,,,,,,,,,,275.1815650999997,274.46427689999837,274.46427689999837,274.46427689999837,274.46427689999837,274.46427689999837,274.46427689999837,274.46427689999837,274.46427689999837,274.46427689999837,1,0.7068312000046717,275.5335739000002,275.5335739000002,275.5335739000002,275.5335739000002,124.5,['return'],[0.9793047000057413],,,,,194,2022-12-23_11h05.26.540,PEmem_Phase-02_retrieval,2022.2.4,None,
4.75383099906629,196.588235294118,16.5882352941177,76.4201680672269,singletons,272.512605042017,maps/google_map_1.png,None,objects/1/1_137.jpg,0.0,indoors,Tape_Clear.jpg,old,0,89,89,89,,,,,,,,,,,,,,,,,,,,,,,,,,,,,,,,,,,,,,,,,,,,,,,,,,194,2022-12-23_11h05.26.540,PEmem_Phase-02_retrieval,2022.2.4,None,
5.27685401312294,196.588235294118,286.588235294118,106.588235294118,medium,302.494816038895,maps/google_map_1.png,105.906580744777,objects/1/1_46.jpg,0.0,outdoors,Hat_Cowboy.jpg,old,0,90,90,90,0,0,0,0,,,,,,,,,,,,,,,,,,,,,,,279.38166259999707,276.7728096999999,276.7728096999999,276.7728096999999,276.7728096999999,276.7728096999999,276.7728096999999,276.7728096999999,276.7728096999999,276.7728096999999,6,2.5939687000063714,279.73437790000025,279.73437790000025,279.73437790000025,279.73437790000025,309.5,['return'],[0.8227456000022357],,,,,194,2022-12-23_11h05.26.540,PEmem_Phase-02_retrieval,2022.2.4,None,
5.27685401312294,196.588235294118,286.588235294118,106.588235294118,medium,302.494816038895,maps/google_map_1.png,105.906580744777,objects/1/1_46.jpg,0.0,outdoors,Hat_Cowboy.jpg,old,0,90,90,90,,,,,,,,,,,,,,,,,,,,,,,,,,,,,,,,,,,,,,,,,,,,,,,,,,194,2022-12-23_11h05.26.540,PEmem_Phase-02_retrieval,2022.2.4,None,
3.65207164922482,106.588235294118,196.588235294118,16.5882352941177,medium,209.354425751741,maps/google_map_1.png,102.766190457623,objects/1/1_57.jpg,0.0,outdoors,Hat_Hard.jpg,old,0,91,91,91,0,0,0,0,,,,,,,,,,,,,,,,,,,,,,,281.68165880000015,280.8329182999951,280.8329182999951,280.8329182999951,280.8329182999951,280.8329182999951,280.8329182999951,280.8329182999951,280.8329182999951,280.8329182999951,6,0.837356500000169,282.03328549999424,282.03328549999424,282.03328549999424,282.03328549999424,198.0,['return'],[0.8302722000080394],,,,,194,2022-12-23_11h05.26.540,PEmem_Phase-02_retrieval,2022.2.4,None,
3.65207164922482,106.588235294118,196.588235294118,16.5882352941177,medium,209.354425751741,maps/google_map_1.png,102.766190457623,objects/1/1_57.jpg,0.0,outdoors,Hat_Hard.jpg,old,0,91,91,91,,,,,,,,,,,,,,,,,,,,,,,,,,,,,,,,,,,,,,,,,,,,,,,,,,194,2022-12-23_11h05.26.540,PEmem_Phase-02_retrieval,2022.2.4,None,
6.0694939309057,196.588235294118,106.588235294118,323.798319327731,singletons,347.932773109244,maps/google_map_1.png,None,objects/1/1_34.jpg,0.0,indoors,Ruler_Wooden.jpg,old,0,92,92,92,0,0,0,0,,,,,,,,,,,,,,,,,,,,,,,284.6899931999942,283.1321303000004,283.1321303000004,283.1321303000004,283.1321303000004,283.1321303000004,283.1321303000004,283.1321303000004,283.1321303000004,283.1321303000004,1,1.5435373000073014,285.03961799999524,285.03961799999524,285.03961799999524,285.03961799999524,197,['return'],[1.0097727000029408],,,,,194,2022-12-23_11h05.26.540,PEmem_Phase-02_retrieval,2022.2.4,None,
6.0694939309057,196.588235294118,106.588235294118,323.798319327731,singletons,347.932773109244,maps/google_map_1.png,None,objects/1/1_34.jpg,0.0,indoors,Ruler_Wooden.jpg,old,0,92,92,92,,,,,,,,,,,,,,,,,,,,,,,,,,,,,,,,,,,,,,,,,,,,,,,,,,194,2022-12-23_11h05.26.540,PEmem_Phase-02_retrieval,2022.2.4,None,
4.46141503514009,106.588235294118,196.588235294118,16.5882352941177,high,255.749906472999,maps/google_map_1.png,149.161671178881,objects/1/1_105.jpg,0.0,outdoors,Hippopotamus.jpg,old,0,93,93,93,0,0,0,0,,,,,,,,,,,,,,,,,,,,,,,287.5400240999952,286.3157124999998,286.3157124999998,286.3157124999998,286.3157124999998,286.3157124999998,286.3157124999998,286.3157124999998,286.3157124999998,286.3157124999998,1,1.2155245000030845,287.88974819999567,287.88974819999567,287.88974819999567,287.88974819999567,95.5,['return'],[1.0411679000026197],,,,,194,2022-12-23_11h05.26.540,PEmem_Phase-02_retrieval,2022.2.4,None,
4.46141503514009,106.588235294118,196.588235294118,16.5882352941177,high,255.749906472999,maps/google_map_1.png,149.161671178881,objects/1/1_105.jpg,0.0,outdoors,Hippopotamus.jpg,old,0,93,93,93,,,,,,,,,,,,,,,,,,,,,,,,,,,,,,,,,,,,,,,,,,,,,,,,,,194,2022-12-23_11h05.26.540,PEmem_Phase-02_retrieval,2022.2.4,None,
None,None,None,None,None,None,maps/google_map_1.png,None,objects/2/2_126.jpg,None,indoors,Playdoh.jpg,new,0,94,94,94,,,,,,,,,,,,,,,,,,,,,,,,,,,289.9316503999944,289.1914598000003,289.1914598000003,289.1914598000003,289.1914598000003,289.1914598000003,289.1914598000003,289.1914598000003,289.1914598000003,289.1914598000003,1,0.7277692999996361,290.17341089999536,,,,,,,,,,,194,2022-12-23_11h05.26.540,PEmem_Phase-02_retrieval,2022.2.4,None,
5.25830009911195,106.588235294118,196.588235294118,16.5882352941177,high,301.431215872659,maps/google_map_1.png,165.157019421458,objects/1/1_103.jpg,0.0,outdoors,Stone_Spa.jpg,old,0,95,95,95,0,0,0,0,,,,,,,,,,,,,,,,,,,,,,,291.5148337999999,290.4326998999968,290.4326998999968,290.4326998999968,290.4326998999968,290.4326998999968,290.4326998999968,290.4326998999968,290.4326998999968,290.4326998999968,6,1.0726560000039171,291.8659480999995,291.8659480999995,291.8659480999995,291.8659480999995,327.5,['return'],[0.7835667000035755],,,,,194,2022-12-23_11h05.26.540,PEmem_Phase-02_retrieval,2022.2.4,None,
5.25830009911195,106.588235294118,196.588235294118,16.5882352941177,high,301.431215872659,maps/google_map_1.png,165.157019421458,objects/1/1_103.jpg,0.0,outdoors,Stone_Spa.jpg,old,0,95,95,95,,,,,,,,,,,,,,,,,,,,,,,,,,,,,,,,,,,,,,,,,,,,,,,,,,194,2022-12-23_11h05.26.540,PEmem_Phase-02_retrieval,2022.2.4,None,
None,None,None,None,None,None,maps/google_map_1.png,None,objects/2/2_137.jpg,None,outdoors,Wheelbarrow_Green.jpg,new,0,96,96,96,,,,,,,,,,,,,,,,,,,,,,,,,,,293.6482191999967,292.91386009999405,292.91386009999405,292.91386009999405,292.91386009999405,292.91386009999405,292.91386009999405,292.91386009999405,292.91386009999405,292.91386009999405,1,0.7227915000039502,293.8903152999992,,,,,,,,,,,194,2022-12-23_11h05.26.540,PEmem_Phase-02_retrieval,2022.2.4,None,
None,None,None,None,None,None,maps/google_map_1.png,None,objects/2/2_72.jpg,None,indoors,Binder.jpg,new,0,97,97,97,,,,,,,,,,,,,,,,,,,,,,,,,,,294.7484625999932,294.14985189999425,294.14985189999425,294.14985189999425,294.14985189999425,294.14985189999425,294.14985189999425,294.14985189999425,294.14985189999425,294.14985189999425,1,0.5893617999972776,294.99011219999375,,,,,,,,,,,194,2022-12-23_11h05.26.540,PEmem_Phase-02_retrieval,2022.2.4,None,
None,None,None,None,None,None,maps/google_map_1.png,None,objects/2/2_64.jpg,None,outdoors,Shark_GreatWhite.jpg,new,0,98,98,98,,,,,,,,,,,,,,,,,,,,,,,,,,,295.9567398999934,295.24757219999447,295.24757219999447,295.24757219999447,295.24757219999447,295.24757219999447,295.24757219999447,295.24757219999447,295.24757219999447,295.24757219999447,1,0.6940488000036567,296.1985140999968,,,,,,,,,,,194,2022-12-23_11h05.26.540,PEmem_Phase-02_retrieval,2022.2.4,None,
None,None,None,None,None,None,maps/google_map_1.png,None,objects/2/2_20.jpg,None,outdoors,Squid_Pink.jpg,new,0,99,99,99,,,,,,,,,,,,,,,,,,,,,,,,,,,297.3399642999939,296.4508855999957,296.4508855999957,296.4508855999957,296.4508855999957,296.4508855999957,296.4508855999957,296.4508855999957,296.4508855999957,296.4508855999957,1,0.8796197999981814,297.58187099999486,,,,,,,,,,,194,2022-12-23_11h05.26.540,PEmem_Phase-02_retrieval,2022.2.4,None,
None,None,None,None,None,None,maps/google_map_1.png,None,objects/2/2_73.jpg,None,outdoors,WaterWell.jpg,new,0,100,100,100,,,,,,,,,,,,,,,,,,,,,,,,,,,304.2902071999997,297.841961099999,297.841961099999,297.841961099999,297.841961099999,297.841961099999,297.841961099999,297.841961099999,297.841961099999,297.841961099999,1,6.436308700001973,304.5320195999957,,,,,,,,,,,194,2022-12-23_11h05.26.540,PEmem_Phase-02_retrieval,2022.2.4,None,
None,None,None,None,None,None,maps/google_map_1.png,None,objects/2/2_135.jpg,None,indoors,ComputerKeyboard_F1.jpg,new,0,101,101,101,,,,,,,,,,,,,,,,,,,,,,,,,,,305.34843089999777,304.7899069999985,304.7899069999985,304.7899069999985,304.7899069999985,304.7899069999985,304.7899069999985,304.7899069999985,304.7899069999985,304.7899069999985,1,0.5490310000022873,305.5900846000004,,,,,,,,,,,194,2022-12-23_11h05.26.540,PEmem_Phase-02_retrieval,2022.2.4,None,
None,None,None,None,None,None,maps/google_map_1.png,None,objects/2/2_71.jpg,None,outdoors,PumiceStone.jpg,new,0,102,102,102,,,,,,,,,,,,,,,,,,,,,,,,,,,306.75689739999507,305.85279399999854,305.85279399999854,305.85279399999854,305.85279399999854,305.85279399999854,305.85279399999854,305.85279399999854,305.85279399999854,305.85279399999854,1,0.8894955000068876,307.00108239999827,,,,,,,,,,,194,2022-12-23_11h05.26.540,PEmem_Phase-02_retrieval,2022.2.4,None,
None,None,None,None,None,None,maps/google_map_1.png,None,objects/2/2_31.jpg,None,outdoors,Bark.jpg,new,0,103,103,103,,,,,,,,,,,,,,,,,,,,,,,,,,,307.79869029999827,307.26028829999996,307.26028829999996,307.26028829999996,307.26028829999996,307.26028829999996,307.26028829999996,307.26028829999996,307.26028829999996,307.26028829999996,1,0.5238632000036887,308.04042249999475,,,,,,,,,,,194,2022-12-23_11h05.26.540,PEmem_Phase-02_retrieval,2022.2.4,None,
None,None,None,None,None,None,maps/google_map_1.png,None,objects/2/2_4.jpg,None,outdoors,Hoverboard.jpg,new,0,104,104,104,,,,,,,,,,,,,,,,,,,,,,,,,,,312.27376929999446,308.3010165999949,308.3010165999949,308.3010165999949,308.3010165999949,308.3010165999949,308.3010165999949,308.3010165999949,308.3010165999949,308.3010165999949,1,3.9605945000002976,312.51534399999946,,,,,,,,,,,194,2022-12-23_11h05.26.540,PEmem_Phase-02_retrieval,2022.2.4,None,
None,None,None,None,None,None,maps/google_map_1.png,None,objects/2/2_80.jpg,None,indoors,Scissors.jpg,new,0,105,105,105,,,,,,,,,,,,,,,,,,,,,,,,,,,313.97378229999595,312.7666817999998,312.7666817999998,312.7666817999998,312.7666817999998,312.7666817999998,312.7666817999998,312.7666817999998,312.7666817999998,312.7666817999998,1,1.1980255000016768,314.21559519999573,,,,,,,,,,,194,2022-12-23_11h05.26.540,PEmem_Phase-02_retrieval,2022.2.4,None,
1.87541482102602,106.588235294118,196.588235294118,16.5882352941177,low,107.507855982383,maps/google_map_1.png,0.919620688265448,objects/1/1_17.jpg,0.0,outdoors,TigerWhite.jpg,old,0,106,106,106,0,0,0,0,,,,,,,,,,,,,,,,,,,,,,,315.617353499998,314.475878199999,314.475878199999,314.475878199999,314.475878199999,314.475878199999,314.475878199999,314.475878199999,314.475878199999,314.475878199999,5,1.1289089000056265,315.97593439999764,315.97593439999764,315.97593439999764,315.97593439999764,334.5,['return'],[0.870013800005836],,,,,194,2022-12-23_11h05.26.540,PEmem_Phase-02_retrieval,2022.2.4,None,
1.87541482102602,106.588235294118,196.588235294118,16.5882352941177,low,107.507855982383,maps/google_map_1.png,0.919620688265448,objects/1/1_17.jpg,0.0,outdoors,TigerWhite.jpg,old,0,106,106,106,,,,,,,,,,,,,,,,,,,,,,,,,,,,,,,,,,,,,,,,,,,,,,,,,,194,2022-12-23_11h05.26.540,PEmem_Phase-02_retrieval,2022.2.4,None,
None,None,None,None,None,None,maps/google_map_1.png,None,objects/2/2_19.jpg,None,outdoors,Shovel_Garden.jpg,new,0,107,107,107,,,,,,,,,,,,,,,,,,,,,,,,,,,321.7820240999936,317.10940789999586,317.10940789999586,317.10940789999586,317.10940789999586,317.10940789999586,317.10940789999586,317.10940789999586,317.10940789999586,317.10940789999586,1,4.66412180000043,322.02369379999436,,,,,,,,,,,194,2022-12-23_11h05.26.540,PEmem_Phase-02_retrieval,2022.2.4,None,
None,None,None,None,None,None,maps/google_map_1.png,None,objects/2/2_33.jpg,None,indoors,Cheesegrater_Box.jpg,new,0,108,108,108,,,,,,,,,,,,,,,,,,,,,,,,,,,322.8903355999937,322.27348379999603,322.27348379999603,322.27348379999603,322.27348379999603,322.27348379999603,322.27348379999603,322.27348379999603,322.27348379999603,322.27348379999603,1,0.6059983000013744,323.13213220000034,,,,,,,,,,,194,2022-12-23_11h05.26.540,PEmem_Phase-02_retrieval,2022.2.4,None,
0.231101810834225,196.588235294118,286.588235294118,106.588235294118,high,13.2478745064205,maps/google_map_1.png,176.659639212303,objects/1/1_21.jpg,0.0,outdoors,Cow.jpg,old,0,109,109,109,0,0,0,0,,,,,,,,,,,,,,,,,,,,,,,324.51521999999386,323.39022169999953,323.39022169999953,323.39022169999953,323.39022169999953,323.39022169999953,323.39022169999953,323.39022169999953,323.39022169999953,323.39022169999953,5,1.1142624999993131,324.8682564999981,324.8682564999981,324.8682564999981,324.8682564999981,349,['return'],[0.7671361000029719],,,,,194,2022-12-23_11h05.26.540,PEmem_Phase-02_retrieval,2022.2.4,None,
0.231101810834225,196.588235294118,286.588235294118,106.588235294118,high,13.2478745064205,maps/google_map_1.png,176.659639212303,objects/1/1_21.jpg,0.0,outdoors,Cow.jpg,old,0,109,109,109,,,,,,,,,,,,,,,,,,,,,,,,,,,,,,,,,,,,,,,,,,,,,,,,,,194,2022-12-23_11h05.26.540,PEmem_Phase-02_retrieval,2022.2.4,None,
None,None,None,None,None,None,maps/google_map_1.png,None,objects/2/2_23.jpg,None,outdoors,TotemPole.jpg,new,0,110,110,110,,,,,,,,,,,,,,,,,,,,,,,,,,,327.76529519999895,325.899674399996,325.899674399996,325.899674399996,325.899674399996,325.899674399996,325.899674399996,325.899674399996,325.899674399996,325.899674399996,1,1.8563441000078456,328.0069730999967,,,,,,,,,,,194,2022-12-23_11h05.26.540,PEmem_Phase-02_retrieval,2022.2.4,None,
0.806842203548086,196.588235294118,16.5882352941177,230.27731092437,singletons,46.2521008403361,maps/google_map_1.png,None,objects/1/1_20.jpg,0.0,indoors,Clock_Wall.jpg,old,0,111,111,111,0,0,0,0,,,,,,,,,,,,,,,,,,,,,,,329.41549929999746,328.26658449999377,328.26658449999377,328.26658449999377,328.26658449999377,328.26658449999377,328.26658449999377,328.26658449999377,328.26658449999377,328.26658449999377,6,1.140490800004045,329.76512149999326,329.76512149999326,329.76512149999326,329.76512149999326,36.0,['return'],[1.284541500004707],,,,,194,2022-12-23_11h05.26.540,PEmem_Phase-02_retrieval,2022.2.4,None,
0.806842203548086,196.588235294118,16.5882352941177,230.27731092437,singletons,46.2521008403361,maps/google_map_1.png,None,objects/1/1_20.jpg,0.0,indoors,Clock_Wall.jpg,old,0,111,111,111,,,,,,,,,,,,,,,,,,,,,,,,,,,,,,,,,,,,,,,,,,,,,,,,,,194,2022-12-23_11h05.26.540,PEmem_Phase-02_retrieval,2022.2.4,None,
None,None,None,None,None,None,maps/google_map_1.png,None,objects/2/2_143.jpg,None,outdoors,Clam.jpg,new,0,112,112,112,,,,,,,,,,,,,,,,,,,,,,,,,,,332.6406519999946,331.3143970999954,331.3143970999954,331.3143970999954,331.3143970999954,331.3143970999954,331.3143970999954,331.3143970999954,331.3143970999954,331.3143970999954,5,1.3195875000019441,332.8821125999966,,,,,,,,,,,194,2022-12-23_11h05.26.540,PEmem_Phase-02_retrieval,2022.2.4,None,
None,None,None,None,None,None,maps/google_map_1.png,None,objects/2/2_57.jpg,None,indoors,RollingPin.jpg,new,0,113,113,113,,,,,,,,,,,,,,,,,,,,,,,,,,,334.72374839999975,333.1402758999975,333.1402758999975,333.1402758999975,333.1402758999975,333.1402758999975,333.1402758999975,333.1402758999975,333.1402758999975,333.1402758999975,1,1.5706813000069815,334.9654817999981,,,,,,,,,,,194,2022-12-23_11h05.26.540,PEmem_Phase-02_retrieval,2022.2.4,None,
2.65029408470014,106.588235294118,196.588235294118,16.5882352941177,medium,151.927686384085,maps/google_map_1.png,45.339451089967,objects/1/1_118.jpg,0.0,outdoors,DogHouse.jpg,old,0,114,114,114,0,0,0,0,,,,,,,,,,,,,,,,,,,,,,,340.22379609999916,335.2156885999939,335.2156885999939,335.2156885999939,335.2156885999939,335.2156885999939,335.2156885999939,335.2156885999939,335.2156885999939,335.2156885999939,5,4.996469800003979,340.58064739999827,340.58064739999827,340.58064739999827,340.58064739999827,73.5,['return'],[0.8406470999980229],,,,,194,2022-12-23_11h05.26.540,PEmem_Phase-02_retrieval,2022.2.4,None,
2.65029408470014,106.588235294118,196.588235294118,16.5882352941177,medium,151.927686384085,maps/google_map_1.png,45.339451089967,objects/1/1_118.jpg,0.0,outdoors,DogHouse.jpg,old,0,114,114,114,,,,,,,,,,,,,,,,,,,,,,,,,,,,,,,,,,,,,,,,,,,,,,,,,,194,2022-12-23_11h05.26.540,PEmem_Phase-02_retrieval,2022.2.4,None,
None,None,None,None,None,None,maps/google_map_1.png,None,objects/2/2_90.jpg,None,indoors,Switch_LightWhite.jpg,new,0,115,115,115,,,,,,,,,,,,,,,,,,,,,,,,,,,342.5988364999939,341.68965279999975,341.68965279999975,341.68965279999975,341.68965279999975,341.68965279999975,341.68965279999975,341.68965279999975,341.68965279999975,341.68965279999975,1,0.8996186000003945,342.84060539999336,,,,,,,,,,,194,2022-12-23_11h05.26.540,PEmem_Phase-02_retrieval,2022.2.4,None,
None,None,None,None,None,None,maps/google_map_1.png,None,objects/2/2_53.jpg,None,outdoors,TreeStump.jpg,new,0,116,116,116,,,,,,,,,,,,,,,,,,,,,,,,,,,343.6489352999997,343.1023037999985,343.1023037999985,343.1023037999985,343.1023037999985,343.1023037999985,343.1023037999985,343.1023037999985,343.1023037999985,343.1023037999985,1,0.5381659999984549,343.8906053999963,,,,,,,,,,,194,2022-12-23_11h05.26.540,PEmem_Phase-02_retrieval,2022.2.4,None,
3.60031544478509,196.588235294118,286.588235294118,106.588235294118,low,206.387509573668,maps/google_map_1.png,9.79927427954997,objects/1/1_71.jpg,0.0,outdoors,PoliceTape.jpg,old,0,117,117,117,0,0,0,0,,,,,,,,,,,,,,,,,,,,,,,345.1155665999977,344.14128369999526,344.14128369999526,344.14128369999526,344.14128369999526,344.14128369999526,344.14128369999526,344.14128369999526,344.14128369999526,344.14128369999526,5,0.9651247000074363,345.4661316999991,345.4661316999991,345.4661316999991,345.4661316999991,73.5,['return'],[0.6838378000029479],,,,,194,2022-12-23_11h05.26.540,PEmem_Phase-02_retrieval,2022.2.4,None,
3.60031544478509,196.588235294118,286.588235294118,106.588235294118,low,206.387509573668,maps/google_map_1.png,9.79927427954997,objects/1/1_71.jpg,0.0,outdoors,PoliceTape.jpg,old,0,117,117,117,,,,,,,,,,,,,,,,,,,,,,,,,,,,,,,,,,,,,,,,,,,,,,,,,,194,2022-12-23_11h05.26.540,PEmem_Phase-02_retrieval,2022.2.4,None,
None,None,None,None,None,None,maps/google_map_1.png,None,objects/2/2_114.jpg,None,indoors,Blackboard.jpg,new,0,118,118,118,,,,,,,,,,,,,,,,,,,,,,,,,,,347.2077580999976,346.4188402,346.4188402,346.4188402,346.4188402,346.4188402,346.4188402,346.4188402,346.4188402,346.4188402,1,0.7752740000069025,347.44878159999644,,,,,,,,,,,194,2022-12-23_11h05.26.540,PEmem_Phase-02_retrieval,2022.2.4,None,
None,None,None,None,None,None,maps/google_map_1.png,None,objects/2/2_34.jpg,None,outdoors,Arch.jpg,new,0,119,119,119,,,,,,,,,,,,,,,,,,,,,,,,,,,348.2573038999981,347.70816809999815,347.70816809999815,347.70816809999815,347.70816809999815,347.70816809999815,347.70816809999815,347.70816809999815,347.70816809999815,347.70816809999815,1,0.5358343000043533,348.4989659999992,,,,,,,,,,,194,2022-12-23_11h05.26.540,PEmem_Phase-02_retrieval,2022.2.4,None,
1.68209003867839,106.588235294118,196.588235294118,16.5882352941177,low,96.4255436185065,maps/google_map_1.png,10.1626916756112,objects/1/1_44.jpg,0.0,indoors,ProcessorFood_Old.jpg,old,0,120,120,120,0,0,0,0,,,,,,,,,,,,,,,,,,,,,,,350.14067349999823,348.75766440000007,348.75766440000007,348.75766440000007,348.75766440000007,348.75766440000007,348.75766440000007,348.75766440000007,348.75766440000007,348.75766440000007,5,1.3669778000039514,350.4895658999958,350.4895658999958,350.4895658999958,350.4895658999958,141.0,['return'],[0.9111188000024413],,,,,194,2022-12-23_11h05.26.540,PEmem_Phase-02_retrieval,2022.2.4,None,
1.68209003867839,106.588235294118,196.588235294118,16.5882352941177,low,96.4255436185065,maps/google_map_1.png,10.1626916756112,objects/1/1_44.jpg,0.0,indoors,ProcessorFood_Old.jpg,old,0,120,120,120,,,,,,,,,,,,,,,,,,,,,,,,,,,,,,,,,,,,,,,,,,,,,,,,,,194,2022-12-23_11h05.26.540,PEmem_Phase-02_retrieval,2022.2.4,None,
5.37607554785427,106.588235294118,196.588235294118,16.5882352941177,high,308.182674717761,maps/google_map_1.png,158.405560576357,objects/1/1_26.jpg,0.0,indoors,Razor.jpg,old,0,121,121,121,0,0,0,0,,,,,,,,,,,,,,,,,,,,,,,352.68214279999665,351.66462549999414,351.66462549999414,351.66462549999414,351.66462549999414,351.66462549999414,351.66462549999414,351.66462549999414,351.66462549999414,351.66462549999414,6,1.0077166999981273,353.0328800999996,353.0328800999996,353.0328800999996,353.0328800999996,327.5,['return'],[1.7041817999997875],,,,,194,2022-12-23_11h05.26.540,PEmem_Phase-02_retrieval,2022.2.4,None,
5.37607554785427,106.588235294118,196.588235294118,16.5882352941177,high,308.182674717761,maps/google_map_1.png,158.405560576357,objects/1/1_26.jpg,0.0,indoors,Razor.jpg,old,0,121,121,121,,,,,,,,,,,,,,,,,,,,,,,,,,,,,,,,,,,,,,,,,,,,,,,,,,194,2022-12-23_11h05.26.540,PEmem_Phase-02_retrieval,2022.2.4,None,
None,None,None,None,None,None,maps/google_map_1.png,None,objects/2/2_44.jpg,None,indoors,Popcorn.jpg,new,0,122,122,122,,,,,,,,,,,,,,,,,,,,,,,,,,,355.8153635999988,355.0086191999944,355.0086191999944,355.0086191999944,355.0086191999944,355.0086191999944,355.0086191999944,355.0086191999944,355.0086191999944,355.0086191999944,1,0.7926907000000938,356.05747219999466,,,,,,,,,,,194,2022-12-23_11h05.26.540,PEmem_Phase-02_retrieval,2022.2.4,None,
None,None,None,None,None,None,maps/google_map_1.png,None,objects/2/2_111.jpg,None,indoors,Can_Olives.jpg,new,0,123,123,123,,,,,,,,,,,,,,,,,,,,,,,,,,,359.04415080000035,356.3168607999978,356.3168607999978,356.3168607999978,356.3168607999978,356.3168607999978,356.3168607999978,356.3168607999978,356.3168607999978,356.3168607999978,1,2.721171300006972,359.2908849999949,,,,,,,,,,,194,2022-12-23_11h05.26.540,PEmem_Phase-02_retrieval,2022.2.4,None,
3.04272904965081,106.588235294118,196.588235294118,16.5882352941177,medium,174.423958260237,maps/google_map_1.png,67.8357229661196,objects/1/1_127.jpg,0.0,outdoors,FireHydrant.jpg,old,0,124,124,124,0,0,0,0,,,,,,,,,,,,,,,,,,,,,,,360.69077309999557,359.5501984999937,359.5501984999937,359.5501984999937,359.5501984999937,359.5501984999937,359.5501984999937,359.5501984999937,359.5501984999937,359.5501984999937,6,1.1333572000003187,361.0516617999965,361.0516617999965,361.0516617999965,361.0516617999965,188.5,['return'],[1.3466683000006014],,,,,194,2022-12-23_11h05.26.540,PEmem_Phase-02_retrieval,2022.2.4,None,
3.04272904965081,106.588235294118,196.588235294118,16.5882352941177,medium,174.423958260237,maps/google_map_1.png,67.8357229661196,objects/1/1_127.jpg,0.0,outdoors,FireHydrant.jpg,old,0,124,124,124,,,,,,,,,,,,,,,,,,,,,,,,,,,,,,,,,,,,,,,,,,,,,,,,,,194,2022-12-23_11h05.26.540,PEmem_Phase-02_retrieval,2022.2.4,None,
None,None,None,None,None,None,maps/google_map_1.png,None,objects/2/2_117.jpg,None,outdoors,PlayerFootball.jpg,new,0,125,125,125,,,,,,,,,,,,,,,,,,,,,,,,,,,363.5408165999979,362.65758579999965,362.65758579999965,362.65758579999965,362.65758579999965,362.65758579999965,362.65758579999965,362.65758579999965,362.65758579999965,362.65758579999965,1,0.8708613000053447,363.7821522999948,,,,,,,,,,,194,2022-12-23_11h05.26.540,PEmem_Phase-02_retrieval,2022.2.4,None,
None,None,None,None,None,None,maps/google_map_1.png,None,objects/2/2_133.jpg,None,indoors,FortuneCookie.jpg,new,0,126,126,126,,,,,,,,,,,,,,,,,,,,,,,,,,,364.65746119999676,364.0417094999939,364.0417094999939,364.0417094999939,364.0417094999939,364.0417094999939,364.0417094999939,364.0417094999939,364.0417094999939,364.0417094999939,1,0.6074364000014612,364.89910569999483,,,,,,,,,,,194,2022-12-23_11h05.26.540,PEmem_Phase-02_retrieval,2022.2.4,None,
1.9922534713804,106.588235294118,196.588235294118,16.5882352941177,low,114.205613009068,maps/google_map_1.png,7.61737771494995,objects/1/1_52.jpg,0.0,indoors,Star.jpg,old,0,127,127,127,0,0,0,0,,,,,,,,,,,,,,,,,,,,,,,366.3240153999941,365.1579061999946,365.1579061999946,365.1579061999946,365.1579061999946,365.1579061999946,365.1579061999946,365.1579061999946,365.1579061999946,365.1579061999946,6,1.1528479000044172,366.67375439999887,366.67375439999887,366.67375439999887,366.67375439999887,160.5,['return'],[0.6934724000020651],,,,,194,2022-12-23_11h05.26.540,PEmem_Phase-02_retrieval,2022.2.4,None,
1.9922534713804,106.588235294118,196.588235294118,16.5882352941177,low,114.205613009068,maps/google_map_1.png,7.61737771494995,objects/1/1_52.jpg,0.0,indoors,Star.jpg,old,0,127,127,127,,,,,,,,,,,,,,,,,,,,,,,,,,,,,,,,,,,,,,,,,,,,,,,,,,194,2022-12-23_11h05.26.540,PEmem_Phase-02_retrieval,2022.2.4,None,
None,None,None,None,None,None,maps/google_map_1.png,None,objects/2/2_78.jpg,None,indoors,Hotdog_WithBun.jpg,new,0,128,128,128,,,,,,,,,,,,,,,,,,,,,,,,,,,368.4739558000001,367.63440479999554,367.63440479999554,367.63440479999554,367.63440479999554,367.63440479999554,367.63440479999554,367.63440479999554,367.63440479999554,367.63440479999554,1,0.8298939000014798,368.7158855999951,,,,,,,,,,,194,2022-12-23_11h05.26.540,PEmem_Phase-02_retrieval,2022.2.4,None,
None,None,None,None,None,None,maps/google_map_1.png,None,objects/2/2_99.jpg,None,outdoors,Giraffe.jpg,new,0,129,129,129,,,,,,,,,,,,,,,,,,,,,,,,,,,370.22417270000005,368.9745993999968,368.9745993999968,368.9745993999968,368.9745993999968,368.9745993999968,368.9745993999968,368.9745993999968,368.9745993999968,368.9745993999968,5,1.233505400006834,370.46586989999923,,,,,,,,,,,194,2022-12-23_11h05.26.540,PEmem_Phase-02_retrieval,2022.2.4,None,
None,None,None,None,None,None,maps/google_map_1.png,None,objects/2/2_69.jpg,None,outdoors,Toy_Slide.jpg,new,0,130,130,130,,,,,,,,,,,,,,,,,,,,,,,,,,,384.68274639999436,370.717627799997,370.717627799997,370.717627799997,370.717627799997,370.717627799997,370.717627799997,370.717627799997,370.717627799997,370.717627799997,1,13.953364499997406,384.9241589999947,,,,,,,,,,,194,2022-12-23_11h05.26.540,PEmem_Phase-02_retrieval,2022.2.4,None,
2.91190289449113,106.588235294118,286.588235294118,323.798319327731,singletons,166.924369747899,maps/google_map_1.png,None,objects/1/1_7.jpg,0.0,indoors,Briefcase_Open.jpg,old,0,131,131,131,0,0,0,0,,,,,,,,,,,,,,,,,,,,,,,385.87430639999366,385.18482740000036,385.18482740000036,385.18482740000036,385.18482740000036,385.18482740000036,385.18482740000036,385.18482740000036,385.18482740000036,385.18482740000036,1,0.6785911000042688,386.229663399994,386.229663399994,386.229663399994,386.229663399994,184.0,['return'],[1.3681502000035834],,,,,194,2022-12-23_11h05.26.540,PEmem_Phase-02_retrieval,2022.2.4,None,
2.91190289449113,106.588235294118,286.588235294118,323.798319327731,singletons,166.924369747899,maps/google_map_1.png,None,objects/1/1_7.jpg,0.0,indoors,Briefcase_Open.jpg,old,0,131,131,131,,,,,,,,,,,,,,,,,,,,,,,,,,,,,,,,,,,,,,,,,,,,,,,,,,194,2022-12-23_11h05.26.540,PEmem_Phase-02_retrieval,2022.2.4,None,
None,None,None,None,None,None,maps/google_map_1.png,None,objects/2/2_55.jpg,None,outdoors,Earth_Planet.jpg,new,0,132,132,132,,,,,,,,,,,,,,,,,,,,,,,,,,,388.87440109999443,387.859950799997,387.859950799997,387.859950799997,387.859950799997,387.859950799997,387.859950799997,387.859950799997,387.859950799997,387.859950799997,1,0.9991456000061589,389.1159946999978,,,,,,,,,,,194,2022-12-23_11h05.26.540,PEmem_Phase-02_retrieval,2022.2.4,None,
3.70766920794333,196.588235294118,286.588235294118,106.588235294118,low,212.541546952165,maps/google_map_1.png,15.9533116580476,objects/1/1_15.jpg,0.0,indoors,Toy_Lion.jpg,old,0,133,133,133,0,0,0,0,,,,,,,,,,,,,,,,,,,,,,,390.3826507999984,389.3742201999994,389.3742201999994,389.3742201999994,389.3742201999994,389.3742201999994,389.3742201999994,389.3742201999994,389.3742201999994,389.3742201999994,1,0.9962547000031918,390.737105799999,390.737105799999,390.737105799999,390.737105799999,126.0,['return'],[0.8749334000021918],,,,,194,2022-12-23_11h05.26.540,PEmem_Phase-02_retrieval,2022.2.4,None,
3.70766920794333,196.588235294118,286.588235294118,106.588235294118,low,212.541546952165,maps/google_map_1.png,15.9533116580476,objects/1/1_15.jpg,0.0,indoors,Toy_Lion.jpg,old,0,133,133,133,,,,,,,,,,,,,,,,,,,,,,,,,,,,,,,,,,,,,,,,,,,,,,,,,,194,2022-12-23_11h05.26.540,PEmem_Phase-02_retrieval,2022.2.4,None,
4.80645751633987,196.588235294118,106.588235294118,254.411764705882,singletons,275.529411764706,maps/google_map_1.png,None,objects/1/1_131.jpg,0.0,indoors,MagazineRoll.jpg,old,0,134,134,134,0,0,0,0,,,,,,,,,,,,,,,,,,,,,,,393.1994460999995,391.88426689999324,391.88426689999324,391.88426689999324,391.88426689999324,391.88426689999324,391.88426689999324,391.88426689999324,391.88426689999324,391.88426689999324,6,1.301410300002317,393.55170999999973,393.55170999999973,393.55170999999973,393.55170999999973,327.5,['return'],[1.2535620000053314],,,,,194,2022-12-23_11h05.26.540,PEmem_Phase-02_retrieval,2022.2.4,None,
4.80645751633987,196.588235294118,106.588235294118,254.411764705882,singletons,275.529411764706,maps/google_map_1.png,None,objects/1/1_131.jpg,0.0,indoors,MagazineRoll.jpg,old,0,134,134,134,,,,,,,,,,,,,,,,,,,,,,,,,,,,,,,,,,,,,,,,,,,,,,,,,,194,2022-12-23_11h05.26.540,PEmem_Phase-02_retrieval,2022.2.4,None,
None,None,None,None,None,None,maps/google_map_1.png,None,objects/2/2_18.jpg,None,outdoors,Statue_Head.jpg,new,0,135,135,135,,,,,,,,,,,,,,,,,,,,,,,,,,,396.22445109999535,395.07320400000026,395.07320400000026,395.07320400000026,395.07320400000026,395.07320400000026,395.07320400000026,395.07320400000026,395.07320400000026,395.07320400000026,1,1.1366170000037528,396.46610609999334,,,,,,,,,,,194,2022-12-23_11h05.26.540,PEmem_Phase-02_retrieval,2022.2.4,None,
None,None,None,None,None,None,maps/google_map_1.png,None,objects/2/2_136.jpg,None,indoors,Spool_Thread.jpg,new,0,136,136,136,,,,,,,,,,,,,,,,,,,,,,,,,,,399.45783059999667,396.72580589999416,396.72580589999416,396.72580589999416,396.72580589999416,396.72580589999416,396.72580589999416,396.72580589999416,396.72580589999416,396.72580589999416,1,2.721735900006024,399.69944289999694,,,,,,,,,,,194,2022-12-23_11h05.26.540,PEmem_Phase-02_retrieval,2022.2.4,None,
2.30940094849127,106.588235294118,196.588235294118,16.5882352941177,low,132.386041633258,maps/google_map_1.png,25.79780633914,objects/1/1_55.jpg,0.0,outdoors,Chipmunk.jpg,old,0,137,137,137,0,0,0,0,,,,,,,,,,,,,,,,,,,,,,,400.9411223999996,399.9520405000003,399.9520405000003,399.9520405000003,399.9520405000003,399.9520405000003,399.9520405000003,399.9520405000003,399.9520405000003,399.9520405000003,5,0.9749762999999803,401.29856969999673,401.29856969999673,401.29856969999673,401.29856969999673,83.5,['return'],[0.6670311999987462],,,,,194,2022-12-23_11h05.26.540,PEmem_Phase-02_retrieval,2022.2.4,None,
2.30940094849127,106.588235294118,196.588235294118,16.5882352941177,low,132.386041633258,maps/google_map_1.png,25.79780633914,objects/1/1_55.jpg,0.0,outdoors,Chipmunk.jpg,old,0,137,137,137,,,,,,,,,,,,,,,,,,,,,,,,,,,,,,,,,,,,,,,,,,,,,,,,,,194,2022-12-23_11h05.26.540,PEmem_Phase-02_retrieval,2022.2.4,None,
6.17474696545285,106.588235294118,286.588235294118,344.915966386555,singletons,353.966386554622,maps/google_map_1.png,None,objects/1/1_23.jpg,0.0,indoors,Stethoscope.jpg,old,0,138,138,138,0,0,0,0,,,,,,,,,,,,,,,,,,,,,,,403.324495199995,402.2326250999977,402.2326250999977,402.2326250999977,402.2326250999977,402.2326250999977,402.2326250999977,402.2326250999977,402.2326250999977,402.2326250999977,6,1.0821895000044606,403.6807262000002,403.6807262000002,403.6807262000002,403.6807262000002,1,['return'],[1.5156966000067769],,,,,194,2022-12-23_11h05.26.540,PEmem_Phase-02_retrieval,2022.2.4,None,
6.17474696545285,106.588235294118,286.588235294118,344.915966386555,singletons,353.966386554622,maps/google_map_1.png,None,objects/1/1_23.jpg,0.0,indoors,Stethoscope.jpg,old,0,138,138,138,,,,,,,,,,,,,,,,,,,,,,,,,,,,,,,,,,,,,,,,,,,,,,,,,,194,2022-12-23_11h05.26.540,PEmem_Phase-02_retrieval,2022.2.4,None,
None,None,None,None,None,None,maps/google_map_1.png,None,objects/2/2_131.jpg,None,outdoors,Bucket_WoodenDark.jpg,new,0,139,139,139,,,,,,,,,,,,,,,,,,,,,,,,,,,406.2910489999995,405.4658569999956,405.4658569999956,405.4658569999956,405.4658569999956,405.4658569999956,405.4658569999956,405.4658569999956,405.4658569999956,405.4658569999956,1,0.813490799999272,406.5328238000002,,,,,,,,,,,194,2022-12-23_11h05.26.540,PEmem_Phase-02_retrieval,2022.2.4,None,
2.70139682539683,196.588235294118,106.588235294118,221.226890756303,singletons,154.857142857143,maps/google_map_1.png,None,objects/1/1_18.jpg,0.0,indoors,ChessPiece_Knight.jpg,old,0,140,140,140,0,0,0,0,,,,,,,,,,,,,,,,,,,,,,,408.0413069999995,406.79558299999917,406.79558299999917,406.79558299999917,406.79558299999917,406.79558299999917,406.79558299999917,406.79558299999917,406.79558299999917,406.79558299999917,5,1.2342870000065886,408.39580849999766,408.39580849999766,408.39580849999766,408.39580849999766,138.5,['return'],[1.4205562000061036],,,,,194,2022-12-23_11h05.26.540,PEmem_Phase-02_retrieval,2022.2.4,None,
2.70139682539683,196.588235294118,106.588235294118,221.226890756303,singletons,154.857142857143,maps/google_map_1.png,None,objects/1/1_18.jpg,0.0,indoors,ChessPiece_Knight.jpg,old,0,140,140,140,,,,,,,,,,,,,,,,,,,,,,,,,,,,,,,,,,,,,,,,,,,,,,,,,,194,2022-12-23_11h05.26.540,PEmem_Phase-02_retrieval,2022.2.4,None,
0.997349491908535,196.588235294118,286.588235294118,106.588235294118,high,57.1729008100434,maps/google_map_1.png,139.415334484074,objects/1/1_124.jpg,0.0,indoors,GranolaBar.jpg,old,0,141,141,141,0,0,0,0,,,,,,,,,,,,,,,,,,,,,,,411.7076906999937,410.08325579999655,410.08325579999655,410.08325579999655,410.08325579999655,410.08325579999655,410.08325579999655,410.08325579999655,410.08325579999655,410.08325579999655,6,1.6096206000074744,412.0608554999999,412.0608554999999,412.0608554999999,412.0608554999999,14.0,['return'],[0.8098070999985794],,,,,194,2022-12-23_11h05.26.540,PEmem_Phase-02_retrieval,2022.2.4,None,
0.997349491908535,196.588235294118,286.588235294118,106.588235294118,high,57.1729008100434,maps/google_map_1.png,139.415334484074,objects/1/1_124.jpg,0.0,indoors,GranolaBar.jpg,old,0,141,141,141,,,,,,,,,,,,,,,,,,,,,,,,,,,,,,,,,,,,,,,,,,,,,,,,,,194,2022-12-23_11h05.26.540,PEmem_Phase-02_retrieval,2022.2.4,None,
3.39301522290087,106.588235294118,196.588235294118,16.5882352941177,medium,194.504057363744,maps/google_map_1.png,87.9158220696263,objects/1/1_106.jpg,0.0,indoors,Cheque.jpg,old,0,142,142,142,0,0,0,0,,,,,,,,,,,,,,,,,,,,,,,414.3246478999936,413.14108949999354,413.14108949999354,413.14108949999354,413.14108949999354,413.14108949999354,413.14108949999354,413.14108949999354,413.14108949999354,413.14108949999354,6,1.1674443000010797,414.6759877999939,414.6759877999939,414.6759877999939,414.6759877999939,71.0,['return'],[1.2536825999995926],,,,,194,2022-12-23_11h05.26.540,PEmem_Phase-02_retrieval,2022.2.4,None,
3.39301522290087,106.588235294118,196.588235294118,16.5882352941177,medium,194.504057363744,maps/google_map_1.png,87.9158220696263,objects/1/1_106.jpg,0.0,indoors,Cheque.jpg,old,0,142,142,142,,,,,,,,,,,,,,,,,,,,,,,,,,,,,,,,,,,,,,,,,,,,,,,,,,194,2022-12-23_11h05.26.540,PEmem_Phase-02_retrieval,2022.2.4,None,
6.0694939309057,106.588235294118,16.5882352941177,287.596638655462,singletons,347.932773109244,maps/google_map_1.png,None,objects/1/1_70.jpg,0.0,outdoors,Colosseum.jpg,old,0,143,143,143,0,0,0,0,,,,,,,,,,,,,,,,,,,,,,,417.2994141999952,416.1997360999958,416.1997360999958,416.1997360999958,416.1997360999958,416.1997360999958,416.1997360999958,416.1997360999958,416.1997360999958,416.1997360999958,6,1.083509000003687,417.6503565999956,417.6503565999956,417.6503565999956,417.6503565999956,320.5,['return'],[1.5025021999972523],,,,,194,2022-12-23_11h05.26.540,PEmem_Phase-02_retrieval,2022.2.4,None,
6.0694939309057,106.588235294118,16.5882352941177,287.596638655462,singletons,347.932773109244,maps/google_map_1.png,None,objects/1/1_70.jpg,0.0,outdoors,Colosseum.jpg,old,0,143,143,143,,,,,,,,,,,,,,,,,,,,,,,,,,,,,,,,,,,,,,,,,,,,,,,,,,194,2022-12-23_11h05.26.540,PEmem_Phase-02_retrieval,2022.2.4,None,
2.66220514726578,106.588235294118,196.588235294118,16.5882352941177,medium,152.610486148994,maps/google_map_1.png,46.0222508548758,objects/1/1_11.jpg,0.0,indoors,Licorice.jpg,old,0,144,144,144,0,0,0,0,,,,,,,,,,,,,,,,,,,,,,,420.6995934999941,419.41753179999796,419.41753179999796,419.41753179999796,419.41753179999796,419.41753179999796,419.41753179999796,419.41753179999796,419.41753179999796,419.41753179999796,6,1.2723809000017354,421.0503485999943,421.0503485999943,421.0503485999943,421.0503485999943,151.5,['return'],[0.8209750000023632],,,,,194,2022-12-23_11h05.26.540,PEmem_Phase-02_retrieval,2022.2.4,None,
