list,radians,center,pos_1,pos_2,type,degrees,map_file,PE,object,isFiller,outdoors_response,stimulus,list_loop.thisRepN,list_loop.thisTrialN,list_loop.thisN,list_loop.thisIndex,trials.thisRepN,trials.thisTrialN,trials.thisN,trials.thisIndex,cal2.thisRepN,cal2.thisTrialN,cal2.thisN,cal2.thisIndex,Instr_1.started,key_resp_instr_1.started,key_resp_instr_1.keys,key_resp_instr_1.rt,Instr_3.started,key_instr_3.started,key_instr_3.keys,key_instr_3.rt,Instr_4.started,key_instr_4.started,key_instr_4.keys,key_instr_4.rt,final_instructions.started,final_instr_key.started,final_instr_key.keys,final_instr_key.rt,text_4.started,image.started,truck_1.started,truck_1.stopped,truck_2.started,truck_2.stopped,truck_3.started,truck_3.stopped,image_3.started,image_feedb.started,text_5.started,text_7.started,ind_out_resp.started,ind_out_resp.keys,ind_out_resp.rt,highlight_resp_2.started,text_8.started,text_10.started,highlight_resp_2.stopped,text_8.stopped,text_10.stopped,text_4.stopped,half_task_msg.started,half_task_space.started,half_task_space.keys,half_task_space.rt,Break_text.started,break_resp.started,break_resp.keys,break_resp.rt,text.started,text.stopped,participant,handedness,age,gender,date,expName,psychopyVersion,frameRate,
,,,,,,,,,,,,,,,,,,,,,,,,,116.68147150000004,116.68147150000004,space,0.5619234000041615,,,,,,,,,,,,,,,,,,,,,,,,,,,,,,,,,,,,,,,,,,,,,194,,,,2022-12-23_09h51.49.920,PEmem_Phase-01_encoding,2022.2.4,119.80854594327602,
,,,,,,,,,,,,,,,,,,,,,,,,,,,,,117.25797099999909,117.25797099999909,space,0.4352834000092116,,,,,,,,,,,,,,,,,,,,,,,,,,,,,,,,,,,,,,,,,194,,,,2022-12-23_09h51.49.920,PEmem_Phase-01_encoding,2022.2.4,119.80854594327602,
,,,,,,,,,,,,,,,,,,,,,,,,,,,,,,,,,117.70797039999889,117.70797039999889,space,0.5507044000041788,,,,,,,,,,,,,,,,,,,,,,,,,,,,,,,,,,,,,194,,,,2022-12-23_09h51.49.920,PEmem_Phase-01_encoding,2022.2.4,119.80854594327602,
,,,,,,,,,,,,,,,,,,,,,,,,,,,,,,,,,,,,,118.27464619999955,118.27464619999955,space,0.6511882000049809,,,,,,,,,,,,,,,,,,,,,,,,,,,,,,,,,194,,,,2022-12-23_09h51.49.920,PEmem_Phase-01_encoding,2022.2.4,119.80854594327602,
lists/194/stimuli_position_map_1.csv,2.03817724431753,106.588235294118,196.588235294118,16.5882352941177,low,116.838185979986,maps/google_map_1.png,10.2499506858682,objects/2/2_112.jpg,1,outdoors,Toy_GasPump.jpg,0,0,0,0,0,0,0,0,,,,,,,,,,,,,,,,,,,,,119.08138199999667,119.79268249999586,120.05802820000099,120.55796279999777,121.05803379999998,121.55794890000107,122.05810100000235,122.55812419999711,122.80423090000113,122.80423090000113,124.07484249999834,124.07484249999834,124.07484249999834,a,1.2990934000044945,125.38327159999608,125.38327159999608,125.38327159999608,125.88333710000006,125.88333710000006,125.88333710000006,,,,,,,,,,,,194,,,,2022-12-23_09h51.49.920,PEmem_Phase-01_encoding,2022.2.4,119.80854594327602,
lists/194/stimuli_position_map_1.csv,1.41159315104529,106.588235294118,196.588235294118,16.5882352941177,low,80.9193526076916,maps/google_map_1.png,25.668882686426,objects/2/2_112.jpg,1,outdoors,Toy_GasPump.jpg,0,0,0,0,0,1,1,1,,,,,,,,,,,,,,,,,,,,,125.88333710000006,126.4977429999999,126.8831424999953,127.38332110000192,127.88332439999795,128.38336079999863,128.88336739999795,129.38336549999804,129.50905999999668,129.50905999999668,130.90018399999826,130.90018399999826,130.90018399999826,a,0.2933984999981476,131.20816439999908,131.20816439999908,131.20816439999908,131.70816049999848,131.70816049999848,131.70816049999848,126.4977429999999,,,,,,,,,,,194,,,,2022-12-23_09h51.49.920,PEmem_Phase-01_encoding,2022.2.4,119.80854594327602,
lists/194/stimuli_position_map_1.csv,2.25313872787582,106.588235294118,196.588235294118,16.5882352941177,low,129.160818795429,maps/google_map_1.png,22.5725835013113,objects/1/1_87.jpg,0,indoors,Clock_Digital.jpg,0,0,0,0,0,2,2,2,,,,,,,,,,,,,,,,,,,,,131.70816049999848,132.3236579000004,132.7082569999984,133.20817610000086,133.70829940000112,134.20842479999556,134.7001958999972,135.20005559999845,135.33653539999796,135.33653539999796,136.72519489999831,136.72519489999831,136.72519489999831,l,0.25316380000003846,136.99183900000207,136.99183900000207,136.99183900000207,137.4929048999984,137.4929048999984,137.4929048999984,132.3236579000004,,,,,,,,,,,194,,,,2022-12-23_09h51.49.920,PEmem_Phase-01_encoding,2022.2.4,119.80854594327602,
lists/194/stimuli_position_map_1.csv,2.30940094849127,106.588235294118,196.588235294118,16.5882352941177,low,132.386041633258,maps/google_map_1.png,25.79780633914,objects/1/1_55.jpg,0,outdoors,Chipmunk.jpg,0,0,0,0,0,3,3,3,,,,,,,,,,,,,,,,,,,,,137.4929048999984,138.11681610000232,138.49178779999784,138.99175059999834,139.49169099999563,139.99179239999648,140.491697999998,140.99172949999775,141.12155519999942,141.12155519999942,142.50834190000023,142.50834190000023,142.50834190000023,a,0.19392990000051213,142.71681099999842,142.71681099999842,142.71681099999842,143.21664469999814,143.21664469999814,143.21664469999814,,,,,,,,,,,,194,,,,2022-12-23_09h51.49.920,PEmem_Phase-01_encoding,2022.2.4,119.80854594327602,
lists/194/stimuli_position_map_1.csv,1.74190397752487,106.588235294118,196.588235294118,16.5882352941177,low,99.8543681383682,maps/google_map_1.png,6.73386715574942,objects/1/1_109.jpg,0,outdoors,Camel_Dromedary.jpg,0,0,0,0,0,4,4,4,,,,,,,,,,,,,,,,,,,,,143.21664469999814,143.82811619999848,144.21674199999688,144.7170116999987,145.20846270000038,145.70840360000147,146.20979069999885,146.71678460000112,146.84267349999573,146.84267349999573,148.23370520000026,148.23370520000026,148.23370520000026,a,0.21158020000439137,148.45845030000055,148.45845030000055,148.45845030000055,148.95836879999842,148.95836879999842,148.95836879999842,143.82811619999848,,,,,,,,,,,194,,,,2022-12-23_09h51.49.920,PEmem_Phase-01_encoding,2022.2.4,119.80854594327602,
lists/194/stimuli_position_map_1.csv,2.06707646222506,106.588235294118,196.588235294118,16.5882352941177,low,118.494829044749,maps/google_map_1.png,11.9065937506309,objects/1/1_69.jpg,0,indoors,Oven.jpg,0,0,0,0,0,5,5,5,,,,,,,,,,,,,,,,,,,,,148.95836879999842,149.57092340000236,149.9584302000003,150.45840339999995,150.95846899999742,151.45847199999844,151.9585120999982,152.4585281999971,152.58274340000207,152.58274340000207,153.9753555999996,153.9753555999996,153.9753555999996,a,0.1943135000037728,154.18370779999532,154.18370779999532,154.18370779999532,154.68363220000174,154.68363220000174,154.68363220000174,149.57092340000236,,,,,,,,,,,194,,,,2022-12-23_09h51.49.920,PEmem_Phase-01_encoding,2022.2.4,119.80854594327602,
lists/194/stimuli_position_map_1.csv,1.68209003867839,106.588235294118,196.588235294118,16.5882352941177,low,96.4255436185065,maps/google_map_1.png,10.1626916756112,objects/1/1_44.jpg,0,indoors,ProcessorFood_Old.jpg,0,0,0,0,0,6,6,6,,,,,,,,,,,,,,,,,,,,,154.68363220000174,155.29874869999912,155.6835504999981,156.18355499999598,156.6837080999976,157.18374509999558,157.68360989999928,158.18380929999694,158.3101941999994,158.3101941999994,159.69205579999834,159.69205579999834,159.69205579999834,l,0.4800281000061659,160.18343409999943,160.18343409999943,160.18343409999943,160.68345260000206,160.68345260000206,160.68345260000206,155.29874869999912,,,,,,,,,,,194,,,,2022-12-23_09h51.49.920,PEmem_Phase-01_encoding,2022.2.4,119.80854594327602,
lists/194/stimuli_position_map_1.csv,1.91642422579606,106.588235294118,196.588235294118,16.5882352941177,low,109.858713580666,maps/google_map_1.png,3.27047828654826,objects/1/1_59.jpg,1,outdoors,Hedgehog.jpg,0,0,0,0,0,7,7,7,,,,,,,,,,,,,,,,,,,,,160.68345260000206,161.29796419999911,161.6835071999958,162.18367179999768,162.68352449999657,163.18369050000183,163.68381619999855,164.18364440000005,164.31103289999737,164.31103289999737,165.7001489999966,165.7001489999966,165.7001489999966,l,0.3831400000053691,166.091906499998,166.091906499998,166.091906499998,166.59206419999828,166.59206419999828,166.59206419999828,161.29796419999911,,,,,,,,,,,194,,,,2022-12-23_09h51.49.920,PEmem_Phase-01_encoding,2022.2.4,119.80854594327602,
lists/194/stimuli_position_map_1.csv,1.87541482102602,106.588235294118,196.588235294118,16.5882352941177,low,107.507855982383,maps/google_map_1.png,0.919620688265448,objects/1/1_17.jpg,0,outdoors,TigerWhite.jpg,0,0,0,0,0,8,8,8,,,,,,,,,,,,,,,,,,,,,166.59206419999828,167.20334609999554,167.59216580000066,168.09178139999858,168.59197270000004,169.09205680000014,169.59210829999938,170.09226910000143,170.22007499999745,170.22007499999745,171.60885260000214,171.60885260000214,171.60885260000214,l,0.4440422000043327,172.06696499999816,172.06696499999816,172.06696499999816,172.56709599999886,172.56709599999886,172.56709599999886,167.20334609999554,,,,,,,,,,,194,,,,2022-12-23_09h51.49.920,PEmem_Phase-01_encoding,2022.2.4,119.80854594327602,
lists/194/stimuli_position_map_1.csv,1.39539596269728,106.588235294118,196.588235294118,16.5882352941177,low,79.9908513648122,maps/google_map_1.png,26.5973839293055,objects/1/1_66.jpg,0,outdoors,Pickaxe.jpg,0,0,0,0,0,9,9,9,,,,,,,,,,,,,,,,,,,,,172.56709599999886,173.18195749999722,173.5669695999968,174.06720889999997,174.56709299999784,175.06720269999641,175.56716049999523,176.06716420000157,176.19773690000147,176.19773690000147,177.57556869999826,177.57556869999826,177.57556869999826,a,1.8009097000031034,179.39194689999567,179.39194689999567,179.39194689999567,179.89208099999814,179.89208099999814,179.89208099999814,173.18195749999722,,,,,,,,,,,194,,,,2022-12-23_09h51.49.920,PEmem_Phase-01_encoding,2022.2.4,119.80854594327602,
lists/194/stimuli_position_map_1.csv,1.99404808897844,106.588235294118,196.588235294118,16.5882352941177,low,114.308489177108,maps/google_map_1.png,7.72025388299026,objects/2/2_91.jpg,1,indoors,TortillaChip.jpg,0,0,0,0,0,10,10,10,,,,,,,,,,,,,,,,,,,,,179.89208099999814,180.50319260000106,180.8838390000019,181.38383379999868,181.88371899999765,182.38389389999793,182.88390500000241,183.38398620000225,183.52110050000192,183.52110050000192,184.90893309999956,184.90893309999956,184.90893309999956,l,0.15582030000223313,185.07546139999613,185.07546139999613,185.07546139999613,185.57538389999536,185.57538389999536,185.57538389999536,180.50319260000106,,,,,,,,,,,194,,,,2022-12-23_09h51.49.920,PEmem_Phase-01_encoding,2022.2.4,119.80854594327602,
lists/194/stimuli_position_map_1.csv,1.28048085901027,106.588235294118,106.588235294118,275.529411764706,singletons,73.4033613445378,maps/google_map_1.png,None,objects/1/1_101.jpg,0,indoors,Accordion.jpg,0,0,0,0,0,11,11,11,,,,,,,,,,,,,,,,,,,,,185.57538389999536,186.18612739999662,186.5754616999984,187.0756007999953,187.57549789999757,188.07552520000172,188.5757162000009,189.07555760000105,189.2034616999954,189.2034616999954,190.59283190000133,190.59283190000133,190.59283190000133,a,0.2142567000046256,190.8170070999986,190.8170070999986,190.8170070999986,191.3171427999987,191.3171427999987,191.3171427999987,186.18612739999662,,,,,,,,,,,194,,,,2022-12-23_09h51.49.920,PEmem_Phase-01_encoding,2022.2.4,119.80854594327602,
lists/194/stimuli_position_map_1.csv,1.91694278626923,106.588235294118,196.588235294118,16.5882352941177,low,109.888439977217,maps/google_map_1.png,3.30020468309922,objects/1/1_33.jpg,0,indoors,Mop.jpg,0,0,0,0,0,12,12,12,,,,,,,,,,,,,,,,,,,,,191.3171427999987,191.92853069999546,192.31722309999896,192.81718140000157,193.31726869999693,193.81722399999853,194.31741340000008,194.8172603999992,194.94347449999623,194.94347449999623,196.33378190000076,196.33378190000076,196.33378190000076,l,0.19022170000243932,196.53407999999763,196.53407999999763,196.53407999999763,197.03405270000076,197.03405270000076,197.03405270000076,191.92853069999546,,,,,,,,,,,194,,,,2022-12-23_09h51.49.920,PEmem_Phase-01_encoding,2022.2.4,119.80854594327602,
lists/194/stimuli_position_map_1.csv,1.63893050376049,106.588235294118,196.588235294118,16.5882352941177,low,93.951430151875,maps/google_map_1.png,12.6368051422426,objects/2/2_75.jpg,1,indoors,TeethMould.jpg,0,0,0,0,0,13,13,13,,,,,,,,,,,,,,,,,,,,,197.03405270000076,197.64450399999623,198.03400220000185,198.53402769999957,199.03400049999618,199.53403070000059,200.03408389999822,200.53402149999602,200.66056930000195,200.66056930000195,202.05085569999937,202.05085569999937,202.05085569999937,l,0.16357100000459468,202.22584030000144,202.22584030000144,202.22584030000144,202.72570319999795,202.72570319999795,202.72570319999795,197.64450399999623,,,,,,,,,,,194,,,,2022-12-23_09h51.49.920,PEmem_Phase-01_encoding,2022.2.4,119.80854594327602,
lists/194/stimuli_position_map_1.csv,1.73775935090389,106.588235294118,196.588235294118,16.5882352941177,low,99.6167780772931,maps/google_map_1.png,6.97145721682452,objects/1/1_59.jpg,1,outdoors,Hedgehog.jpg,0,0,0,0,0,14,14,14,,,,,,,,,,,,,,,,,,,,,202.72570319999795,203.33961139999883,203.7257630000022,204.2256269999998,204.72580469999957,205.22570189999533,205.72577779999847,206.22570090000227,206.34837010000047,206.34837010000047,207.74236689999816,207.74236689999816,207.74236689999816,l,0.39627360001031775,208.15039409999736,208.15039409999736,208.15039409999736,208.6506479000018,208.6506479000018,208.6506479000018,203.33961139999883,,,,,,,,,,,194,,,,2022-12-23_09h51.49.920,PEmem_Phase-01_encoding,2022.2.4,119.80854594327602,
lists/194/stimuli_position_map_1.csv,1.26658914834245,106.588235294118,196.588235294118,16.5882352941177,low,72.607021242561,maps/google_map_1.png,33.9812140515567,objects/1/1_51.jpg,0,indoors,DusterFeather.jpg,0,0,0,0,0,15,15,15,,,,,,,,,,,,,,,,,,,,,208.6506479000018,209.25871170000028,209.6506825999968,210.15092059999733,210.6507580999969,211.1507483999958,211.65077619999647,212.15083610000147,212.27881440000056,212.27881440000056,213.66730429999734,213.66730429999734,213.66730429999734,l,0.23759980000613723,213.9174450999999,213.9174450999999,213.9174450999999,214.41746039999998,214.41746039999998,214.41746039999998,209.25871170000028,,,,,,,,,,,194,,,,2022-12-23_09h51.49.920,PEmem_Phase-01_encoding,2022.2.4,119.80854594327602,
lists/194/stimuli_position_map_1.csv,2.06775211195017,106.588235294118,196.588235294118,16.5882352941177,low,118.533560557653,maps/google_map_1.png,11.9453252635354,objects/2/2_91.jpg,1,indoors,TortillaChip.jpg,0,0,0,0,0,16,16,16,,,,,,,,,,,,,,,,,,,,,214.41746039999998,215.0292006000018,215.417423400002,215.91722080000181,216.4174234999955,216.91735899999912,217.4173684999987,217.91740059999574,218.04456550000032,218.04456550000032,219.43429769999784,219.43429769999784,219.43429769999784,l,0.16695560000516707,219.61756890000106,219.61756890000106,219.61756890000106,220.11760479999793,220.11760479999793,220.11760479999793,215.0292006000018,,,,,,,,,,,194,,,,2022-12-23_09h51.49.920,PEmem_Phase-01_encoding,2022.2.4,119.80854594327602,
lists/194/stimuli_position_map_1.csv,1.43393769929262,106.588235294118,196.588235294118,16.5882352941177,low,82.2002502779211,maps/google_map_1.png,24.3879850161966,objects/2/2_75.jpg,1,indoors,TeethMould.jpg,0,0,0,0,0,17,17,17,,,,,,,,,,,,,,,,,,,,,220.11760479999793,220.72744879999664,221.10912989999633,221.60932370000228,222.10930409999855,222.60933769999974,223.10947319999832,223.60952890000044,223.74667559999943,223.74667559999943,225.13411220000125,225.13411220000125,225.13411220000125,l,0.03364780000265455,225.17586769999616,225.17586769999616,225.17586769999616,225.6759216999999,225.6759216999999,225.6759216999999,220.72744879999664,,,,,,,,,,,194,,,,2022-12-23_09h51.49.920,PEmem_Phase-01_encoding,2022.2.4,119.80854594327602,
lists/194/stimuli_position_map_1.csv,1.96677191954934,106.588235294118,196.588235294118,16.5882352941177,low,112.744887107924,maps/google_map_1.png,6.15665181380602,objects/1/1_3.jpg,0,outdoors,Pig.jpg,0,0,0,0,0,18,18,18,,,,,,,,,,,,,,,,,,,,,225.6759216999999,226.2831686999998,226.6759216999999,227.17581690000225,227.67595150000125,228.17584530000022,228.67598870000074,229.1759583000021,229.30235159999575,229.30235159999575,230.69244880000042,230.69244880000042,230.69244880000042,a,0.10349290000885958,230.8093979999976,230.8093979999976,230.8093979999976,231.30942279999726,231.30942279999726,231.30942279999726,226.2831686999998,,,,,,,,,,,194,,,,2022-12-23_09h51.49.920,PEmem_Phase-01_encoding,2022.2.4,119.80854594327602,
lists/194/stimuli_position_map_1.csv,1.36453504904165,106.588235294118,196.588235294118,16.5882352941177,low,78.2217544036614,maps/google_map_1.png,28.3664808904562,objects/2/2_102.jpg,1,outdoors,Ship_Cruise.jpg,0,0,0,0,0,19,19,19,,,,,,,,,,,,,,,,,,,,,231.30942279999726,231.9188737000004,232.30955320000066,232.80951849999838,233.30940859999828,233.80937119999726,234.30953679999948,234.80959340000118,234.9374897000016,234.9374897000016,236.32611019999604,236.32611019999604,236.32611019999604,l,0.4946593000058783,236.8344003999955,236.8344003999955,236.8344003999955,237.33452789999865,237.33452789999865,237.33452789999865,231.9188737000004,,,,,,,,,,,194,,,,2022-12-23_09h51.49.920,PEmem_Phase-01_encoding,2022.2.4,119.80854594327602,
lists/194/stimuli_position_map_1.csv,2.23545932676226,106.588235294118,196.588235294118,16.5882352941177,low,128.147349941785,maps/google_map_1.png,21.5591146476678,objects/2/2_76.jpg,1,indoors,Dart.jpg,0,0,0,0,0,20,20,20,,,,,,,,,,,,,,,,,,,,,237.33452789999865,237.94169669999974,238.32595339999534,238.82593009999982,239.3345210999978,239.83566839999548,240.33430660000158,240.8343612999961,240.95689329999732,240.95689329999732,242.3510746999964,242.3510746999964,242.3510746999964,l,0.28443080000579357,242.65118559999974,242.65118559999974,242.65118559999974,243.15116090000083,243.15116090000083,243.15116090000083,237.94169669999974,,,,,,,,,,,194,,,,2022-12-23_09h51.49.920,PEmem_Phase-01_encoding,2022.2.4,119.80854594327602,
lists/194/stimuli_position_map_1.csv,1.70141817299976,106.588235294118,196.588235294118,16.5882352941177,low,97.5335258407505,maps/google_map_1.png,9.05470945336716,objects/1/1_88.jpg,0,outdoors,Golf_Club.jpg,0,0,0,0,0,21,21,21,,,,,,,,,,,,,,,,,,,,,243.15116090000083,243.76222830000188,244.15092729999742,244.65108399999735,245.15094619999581,245.6511806999988,246.15113530000235,246.65108789999795,246.7726552000022,246.7726552000022,248.16770269999688,248.16770269999688,248.16770269999688,l,0.07711790000757901,248.25958669999818,248.25958669999818,248.25958669999818,248.75955039999826,248.75955039999826,248.75955039999826,243.76222830000188,,,,,,,,,,,194,,,,2022-12-23_09h51.49.920,PEmem_Phase-01_encoding,2022.2.4,119.80854594327602,
lists/194/stimuli_position_map_1.csv,1.92898088198292,106.588235294118,196.588235294118,16.5882352941177,low,110.57852189711,maps/google_map_1.png,3.99028660299226,objects/2/2_91.jpg,1,indoors,TortillaChip.jpg,0,0,0,0,0,22,22,22,,,,,,,,,,,,,,,,,,,,,248.75955039999826,249.3708325999978,249.75959059999877,250.25965719999658,250.75968529999955,251.25963369999954,251.75119560000167,252.2512573999993,252.38750399999844,252.38750399999844,253.77616300000227,253.77616300000227,253.77616300000227,l,0.08359420000488171,253.8680736000024,253.8680736000024,253.8680736000024,254.36771769999905,254.36771769999905,254.36771769999905,249.3708325999978,,,,,,,,,,,194,,,,2022-12-23_09h51.49.920,PEmem_Phase-01_encoding,2022.2.4,119.80854594327602,
lists/194/stimuli_position_map_1.csv,1.97891146826048,106.588235294118,196.588235294118,16.5882352941177,low,113.440784804741,maps/google_map_1.png,6.85254951062351,objects/1/1_142.jpg,0,outdoors,Cannon.jpg,0,0,0,0,0,23,23,23,,,,,,,,,,,,,,,,,,,,,254.36771769999905,254.97817139999825,255.36796170000162,255.86806899999647,256.3681102999981,256.8679437999963,257.3597258000009,257.8596452999991,257.99858629999653,257.99858629999653,259.3845579999979,259.3845579999979,259.3845579999979,a,0.03503330000239657,259.43461289999686,259.43461289999686,259.43461289999686,259.9343895999991,259.9343895999991,259.9343895999991,254.97817139999825,,,,,,,,,,,194,,,,2022-12-23_09h51.49.920,PEmem_Phase-01_encoding,2022.2.4,119.80854594327602,
lists/194/stimuli_position_map_1.csv,2.91190289449113,106.588235294118,286.588235294118,323.798319327731,singletons,166.924369747899,maps/google_map_1.png,None,objects/1/1_7.jpg,0,indoors,Briefcase_Open.jpg,0,0,0,0,0,24,24,24,,,,,,,,,,,,,,,,,,,,,259.9343895999991,260.5446579999989,260.9343904999987,261.4344906999977,261.93461730000126,262.43447690000175,262.93464310000127,263.43458269999974,263.55951970000024,263.55951970000024,264.95145729999786,264.95145729999786,264.95145729999786,l,0.45166410000092583,265.4181733000005,265.4181733000005,265.4181733000005,265.9180938999998,265.9180938999998,265.9180938999998,260.5446579999989,,,,,,,,,,,194,,,,2022-12-23_09h51.49.920,PEmem_Phase-01_encoding,2022.2.4,119.80854594327602,
lists/194/stimuli_position_map_1.csv,4.25908298465409,106.588235294118,196.588235294118,16.5882352941177,high,244.151253897368,maps/google_map_1.png,137.56301860325,objects/1/1_63.jpg,0,indoors,Ashtray_Empty.jpg,0,0,0,0,0,25,25,25,,,,,,,,,,,,,,,,,,,,,265.9180938999998,266.5265603000007,266.91811549999693,267.41791309999826,267.9180701000005,268.41812679999566,268.9180886999966,269.41779849999875,269.5372556000002,269.5372556000002,270.9345414999989,270.9345414999989,270.9345414999989,l,1.1915923000051407,272.1347676000005,272.1347676000005,272.1347676000005,272.6377966,272.6377966,272.6377966,266.5265603000007,,,,,,,,,,,194,,,,2022-12-23_09h51.49.920,PEmem_Phase-01_encoding,2022.2.4,119.80854594327602,
lists/194/stimuli_position_map_1.csv,3.65207164922482,106.588235294118,196.588235294118,16.5882352941177,medium,209.354425751741,maps/google_map_1.png,102.766190457623,objects/1/1_57.jpg,0,outdoors,Hat_Hard.jpg,0,0,0,0,0,26,26,26,,,,,,,,,,,,,,,,,,,,,272.6377966,273.2563938000021,273.6262782999984,274.1262628999975,274.6347332000005,275.1358095999967,275.63454769999953,276.1348384000012,276.2606899999955,276.2606899999955,277.65148249999766,277.65148249999766,277.65148249999766,a,1.1606303000007756,278.8265915000011,278.8265915000011,278.8265915000011,279.3266289000021,279.3266289000021,279.3266289000021,,,,,,,,,,,,194,,,,2022-12-23_09h51.49.920,PEmem_Phase-01_encoding,2022.2.4,119.80854594327602,
lists/194/stimuli_position_map_1.csv,6.17474696545285,106.588235294118,286.588235294118,344.915966386555,singletons,353.966386554622,maps/google_map_1.png,None,objects/1/1_23.jpg,0,indoors,Stethoscope.jpg,0,0,0,0,0,27,27,27,,,,,,,,,,,,,,,,,,,,,279.3266289000021,279.94236349999846,280.32645400000183,280.82644479999726,281.32641760000115,281.82646869999735,282.3264884999953,282.8264351999969,282.9542481999961,282.9542481999961,284.3432677999954,284.3432677999954,284.3432677999954,l,0.2235592000070028,284.57644959999743,284.57644959999743,284.57644959999743,285.0765171999956,285.0765171999956,285.0765171999956,279.94236349999846,,,,,,,,,,,194,,,,2022-12-23_09h51.49.920,PEmem_Phase-01_encoding,2022.2.4,119.80854594327602,
lists/194/stimuli_position_map_1.csv,3.66746988636194,106.588235294118,196.588235294118,16.5882352941177,medium,210.237127243678,maps/google_map_1.png,103.64889194956,objects/1/1_28.jpg,0,outdoors,Boat_Sail.jpg,0,0,0,0,0,28,28,28,,,,,,,,,,,,,,,,,,,,,285.0765171999956,285.68271839999943,286.0766177999976,286.5765010999967,287.0683147999953,287.56825740000204,288.0683104999989,288.56830980000086,288.7050847999999,288.7050847999999,290.0932585999981,290.0932585999981,290.0932585999981,l,0.42092930000217166,290.52646000000095,290.52646000000095,290.52646000000095,291.0264602000025,291.0264602000025,291.0264602000025,285.68271839999943,,,,,,,,,,,194,,,,2022-12-23_09h51.49.920,PEmem_Phase-01_encoding,2022.2.4,119.80854594327602,
lists/194/stimuli_position_map_1.csv,3.20332563354852,106.588235294118,196.588235294118,16.5882352941177,medium,183.630131859469,maps/google_map_1.png,77.0418965653516,objects/1/1_61.jpg,0,indoors,ServiceBell.jpg,0,0,0,0,0,29,29,29,,,,,,,,,,,,,,,,,,,,,291.0264602000025,291.634922199999,292.0265567000024,292.52661599999556,293.02660820000165,293.5266288999992,294.02664070000174,294.52667030000157,294.6507511000018,294.6507511000018,296.0433980000016,296.0433980000016,296.0433980000016,l,0.12759830000868533,296.18497209999623,296.18497209999623,296.18497209999623,296.68502839999564,296.68502839999564,296.68502839999564,291.634922199999,,,,,,,,,,,194,,,,2022-12-23_09h51.49.920,PEmem_Phase-01_encoding,2022.2.4,119.80854594327602,
lists/194/stimuli_position_map_1.csv,1.64921378310127,106.588235294118,196.588235294118,16.5882352941177,low,94.5409175026208,maps/google_map_1.png,12.0473177914969,objects/2/2_76.jpg,1,indoors,Dart.jpg,0,0,0,0,0,30,30,30,,,,,,,,,,,,,,,,,,,,,296.68502839999564,297.30239340000116,297.6849027999997,298.18488960000104,298.6849610999998,299.1849796999959,299.6767144999976,300.1766107000003,300.3122117000021,300.3122117000021,301.69310450000194,301.69310450000194,301.69310450000194,l,0.23168030000670115,301.936234599998,301.936234599998,301.936234599998,,,,,,,,,,,,,,,194,,,,2022-12-23_09h51.49.920,PEmem_Phase-01_encoding,2022.2.4,119.80854594327602,
lists/194/stimuli_position_map_1.csv,1.68293180962099,106.588235294118,196.588235294118,16.5882352941177,low,96.4737980037509,maps/google_map_1.png,10.1144372903668,objects/2/2_76.jpg,1,indoors,Dart.jpg,0,0,0,0,0,31,31,31,,,,,,,,,,,,,,,,,,,,,302.44302590000007,303.0493781999976,303.42667609999626,303.9268355999957,304.4267445000005,304.9266321999967,305.4266256999981,305.92665589999524,306.0620915999971,306.0620915999971,307.4516039000009,307.4516039000009,307.4516039000009,l,0.18151480000233278,307.64346939999814,307.64346939999814,307.64346939999814,308.1432904999965,308.1432904999965,308.1432904999965,,,,,,,,,,,,194,,,,2022-12-23_09h51.49.920,PEmem_Phase-01_encoding,2022.2.4,119.80854594327602,
lists/194/stimuli_position_map_1.csv,1.96713968455835,106.588235294118,196.588235294118,16.5882352941177,low,112.765969178504,maps/google_map_1.png,6.17773388438665,objects/2/2_112.jpg,1,outdoors,Toy_GasPump.jpg,0,0,0,0,0,32,32,32,,,,,,,,,,,,,,,,,,,,,308.1432904999965,308.75108159999945,309.1433954000022,309.64346519999526,310.1435788000017,310.64355729999806,311.1435968000005,311.6435538000005,311.7728139999963,311.7728139999963,313.16025179999997,313.16025179999997,313.16025179999997,l,0.0774846999993315,313.2518759000013,313.2518759000013,313.2518759000013,313.7518254999959,313.7518254999959,313.7518254999959,308.75108159999945,,,,,,,,,,,194,,,,2022-12-23_09h51.49.920,PEmem_Phase-01_encoding,2022.2.4,119.80854594327602,
lists/194/stimuli_position_map_1.csv,2.12578034804732,106.588235294118,196.588235294118,16.5882352941177,low,121.860019951757,maps/google_map_1.png,15.2717846576394,objects/2/2_91.jpg,1,indoors,TortillaChip.jpg,0,0,0,0,0,33,33,33,,,,,,,,,,,,,,,,,,,,,313.7518254999959,314.3641523999977,314.7518373999992,315.251714799997,315.75180089999776,316.25201399999787,316.7519461999982,317.2519372999959,317.380327400002,317.380327400002,318.7685005000021,318.7685005000021,318.7685005000021,l,0.25304719999985537,319.0350907999964,319.0350907999964,319.0350907999964,319.5358632999996,319.5358632999996,319.5358632999996,314.3641523999977,,,,,,,,,,,194,,,,2022-12-23_09h51.49.920,PEmem_Phase-01_encoding,2022.2.4,119.80854594327602,
lists/194/stimuli_position_map_1.csv,1.10288077488978,106.588235294118,196.588235294118,16.5882352941177,low,63.2224648025988,maps/google_map_1.png,43.3657704915188,objects/1/1_125.jpg,0,outdoors,Door_Green.jpg,0,0,0,0,0,34,34,34,,,,,,,,,,,,,,,,,,,,,319.5358632999996,320.14371889999893,320.5350294999953,321.0350674000001,321.53501980000146,322.0351051999969,322.5350499999986,323.0350634999995,323.160993999998,323.160993999998,324.55195919999824,324.55195919999824,324.55195919999824,l,0.23154810000414727,324.7936619999964,324.7936619999964,324.7936619999964,325.2936045000024,325.2936045000024,325.2936045000024,320.14371889999893,,,,,,,,,,,194,,,,2022-12-23_09h51.49.920,PEmem_Phase-01_encoding,2022.2.4,119.80854594327602,
lists/194/stimuli_position_map_1.csv,5.91161437908497,106.588235294118,286.588235294118,94.5210084033613,singletons,338.882352941176,maps/google_map_1.png,None,objects/1/1_115.jpg,0,indoors,HairDryer.jpg,0,0,0,0,0,35,35,35,,,,,,,,,,,,,,,,,,,,,325.2936045000024,325.9026909999957,326.2935853000017,326.793528299997,327.2935262999963,327.7936305999974,328.2936598000015,328.79364460000215,328.92109089999576,328.92109089999576,330.31024140000227,330.31024140000227,330.31024140000227,l,0.40365630000451347,330.7270976,330.7270976,330.7270976,331.2270967000004,331.2270967000004,331.2270967000004,325.9026909999957,,,,,,,,,,,194,,,,2022-12-23_09h51.49.920,PEmem_Phase-01_encoding,2022.2.4,119.80854594327602,
lists/194/stimuli_position_map_1.csv,3.04272904965081,106.588235294118,196.588235294118,16.5882352941177,medium,174.423958260237,maps/google_map_1.png,67.8357229661196,objects/1/1_127.jpg,0,outdoors,FireHydrant.jpg,0,0,0,0,0,36,36,36,,,,,,,,,,,,,,,,,,,,,331.2270967000004,331.837803800001,332.22693920000165,332.7269776999965,333.2270260000005,333.7268247999964,334.2270079000009,334.72683379999944,334.85325609999563,334.85325609999563,336.24350859999686,336.24350859999686,336.24350859999686,a,0.23301070000889013,336.4852611999959,336.4852611999959,336.4852611999959,336.98523179999756,336.98523179999756,336.98523179999756,331.837803800001,,,,,,,,,,,194,,,,2022-12-23_09h51.49.920,PEmem_Phase-01_encoding,2022.2.4,119.80854594327602,
lists/194/stimuli_position_map_1.csv,4.89965065495097,106.588235294118,196.588235294118,16.5882352941177,high,280.871693595915,maps/google_map_1.png,174.283458301798,objects/1/1_90.jpg,0,indoors,ShoeLace_Flat.jpg,0,0,0,0,0,37,37,37,,,,,,,,,,,,,,,,,,,,,336.98523179999756,337.59678339999664,337.98516989999916,338.48531450000155,338.9853750999973,339.4853662999958,339.98539809999784,340.4854267999981,340.6148633999983,340.6148633999983,342.002132900001,342.002132900001,342.002132900001,l,0.30618840000533964,342.31876380000176,342.31876380000176,342.31876380000176,342.8187786999988,342.8187786999988,342.8187786999988,337.59678339999664,,,,,,,,,,,194,,,,2022-12-23_09h51.49.920,PEmem_Phase-01_encoding,2022.2.4,119.80854594327602,
lists/194/stimuli_position_map_1.csv,3.77233640401144,106.588235294118,196.588235294118,16.5882352941177,medium,216.248583669446,maps/google_map_1.png,109.660348375328,objects/1/1_135.jpg,0,outdoors,Sphinx.jpg,0,0,0,0,0,38,38,38,,,,,,,,,,,,,,,,,,,,,342.8187786999988,343.43174870000075,343.81880889999593,344.31882719999703,344.8186943999972,345.3186540999959,345.81885070000135,346.3191685999991,346.4443814999977,346.4443814999977,347.8353724999979,347.8353724999979,347.8353724999979,l,0.0894828000018606,347.93546980000247,347.93546980000247,347.93546980000247,348.4354678000018,348.4354678000018,348.4354678000018,343.43174870000075,,,,,,,,,,,194,,,,2022-12-23_09h51.49.920,PEmem_Phase-01_encoding,2022.2.4,119.80854594327602,
lists/194/stimuli_position_map_1.csv,1.85613022206524,106.588235294118,196.588235294118,16.5882352941177,low,106.402369417753,maps/google_map_1.png,0.185865876364833,objects/2/2_112.jpg,1,outdoors,Toy_GasPump.jpg,0,0,0,0,0,39,39,39,,,,,,,,,,,,,,,,,,,,,348.4354678000018,349.0493539999952,349.43529950000084,349.9353972999961,350.4354024999993,350.9353637999957,351.4354052999988,351.9353057999979,352.0612261999995,352.0612261999995,353.4521107999972,353.4521107999972,353.4521107999972,l,0.5504908000075375,354.0189352000016,354.0189352000016,354.0189352000016,354.51874880000105,354.51874880000105,354.51874880000105,349.0493539999952,,,,,,,,,,,194,,,,2022-12-23_09h51.49.920,PEmem_Phase-01_encoding,2022.2.4,119.80854594327602,
lists/194/stimuli_position_map_1.csv,5.25830009911195,106.588235294118,196.588235294118,16.5882352941177,high,301.431215872659,maps/google_map_1.png,165.157019421458,objects/1/1_103.jpg,0,outdoors,Stone_Spa.jpg,0,0,0,0,0,40,40,40,,,,,,,,,,,,,,,,,,,,,354.51874880000105,355.1299067,355.5189578999998,356.0189104000019,356.518751399999,357.0188721000013,357.5189541,358.0189513000005,358.1427040999988,358.1427040999988,359.5354890000017,359.5354890000017,359.5354890000017,a,1.2497048000004725,360.79373589999886,360.79373589999886,360.79373589999886,361.29395459999796,361.29395459999796,361.29395459999796,355.1299067,,,,,,,,,,,194,,,,2022-12-23_09h51.49.920,PEmem_Phase-01_encoding,2022.2.4,119.80854594327602,
lists/194/stimuli_position_map_1.csv,2.65029408470014,106.588235294118,196.588235294118,16.5882352941177,medium,151.927686384085,maps/google_map_1.png,45.339451089967,objects/1/1_118.jpg,0,outdoors,DogHouse.jpg,0,0,0,0,0,41,41,41,,,,,,,,,,,,,,,,,,,,,361.29395459999796,361.9001317000002,362.29371759999776,362.7939652999994,363.2939714000022,363.79389880000235,364.29399929999636,364.7939891999995,364.91881719999947,364.91881719999947,366.3107530999987,366.3107530999987,366.3107530999987,a,0.4053263000023435,366.7274357999995,366.7274357999995,366.7274357999995,367.22728079999797,367.22728079999797,367.22728079999797,361.9001317000002,,,,,,,,,,,194,,,,2022-12-23_09h51.49.920,PEmem_Phase-01_encoding,2022.2.4,119.80854594327602,
lists/194/stimuli_position_map_1.csv,1.16234986939075,106.588235294118,196.588235294118,16.5882352941177,low,66.6315211752656,maps/google_map_1.png,39.956714118852,objects/1/1_59.jpg,1,outdoors,Hedgehog.jpg,0,0,0,0,0,42,42,42,,,,,,,,,,,,,,,,,,,,,367.22728079999797,367.8351246999955,368.2188832999964,368.7187896999967,369.21889969999756,369.7190518999996,370.2192443000022,370.71926050000184,370.8591119999983,370.8591119999983,372.24398569999903,372.24398569999903,372.24398569999903,l,0.3093021000022418,372.56899559999874,372.56899559999874,372.56899559999874,373.0688508999956,373.0688508999956,373.0688508999956,367.8351246999955,,,,,,,,,,,194,,,,2022-12-23_09h51.49.920,PEmem_Phase-01_encoding,2022.2.4,119.80854594327602,
lists/194/stimuli_position_map_1.csv,4.15812335713053,106.588235294118,196.588235294118,16.5882352941177,medium,238.363759325954,maps/google_map_1.png,131.775524031837,objects/1/1_130.jpg,0,indoors,ToothBrush.jpg,0,0,0,0,0,43,43,43,,,,,,,,,,,,,,,,,,,,,373.0688508999956,373.679873699999,374.06074760000047,374.56083589999616,375.0608548999953,375.56089950000023,376.0607336999965,376.56088219999947,376.6965635000015,376.6965635000015,378.0857048999969,378.0857048999969,378.0857048999969,l,0.02946440000232542,378.1274689999991,378.1274689999991,378.1274689999991,378.627307499999,378.627307499999,378.627307499999,373.679873699999,,,,,,,,,,,194,,,,2022-12-23_09h51.49.920,PEmem_Phase-01_encoding,2022.2.4,119.80854594327602,
lists/194/stimuli_position_map_1.csv,4.74843578002401,106.588235294118,196.588235294118,16.5882352941177,high,272.203324969529,maps/google_map_1.png,165.615089675412,objects/1/1_117.jpg,0,outdoors,Kangaroo.jpg,0,0,0,0,0,44,44,44,,,,,,,,,,,,,,,,,,,,,378.627307499999,379.23425219999626,379.6191877999954,380.11922210000193,380.61914850000176,381.1191942000005,381.61942219999764,382.11894839999877,382.2520934999993,382.2520934999993,383.64408679999906,383.64408679999906,383.64408679999906,a,0.33394810000027064,383.9940654999955,383.9940654999955,383.9940654999955,384.4940265999976,384.4940265999976,384.4940265999976,379.23425219999626,,,,,,,,,,,194,,,,2022-12-23_09h51.49.920,PEmem_Phase-01_encoding,2022.2.4,119.80854594327602,
lists/194/stimuli_position_map_1.csv,1.93391434108823,106.588235294118,196.588235294118,16.5882352941177,low,110.861331654739,maps/google_map_1.png,4.2730963606214,objects/2/2_112.jpg,1,outdoors,Toy_GasPump.jpg,0,0,0,0,0,45,45,45,,,,,,,,,,,,,,,,,,,,,384.4940265999976,385.1044763999962,385.4858680999969,385.98570859999745,386.4858572000012,386.98594669999875,387.4859451000011,387.9859512999974,388.1224587999968,388.1224587999968,389.5108848999953,389.5108848999953,389.5108848999953,l,0.17704800000501564,389.702640800002,389.702640800002,389.702640800002,390.2025751999972,390.2025751999972,390.2025751999972,385.1044763999962,,,,,,,,,,,194,,,,2022-12-23_09h51.49.920,PEmem_Phase-01_encoding,2022.2.4,119.80854594327602,
lists/194/stimuli_position_map_1.csv,1.73789676681457,106.588235294118,196.588235294118,16.5882352941177,low,99.6246554224914,maps/google_map_1.png,6.96357987162627,objects/2/2_75.jpg,1,indoors,TeethMould.jpg,0,0,0,0,0,46,46,46,,,,,,,,,,,,,,,,,,,,,390.2025751999972,390.8135237999959,391.20249550000153,391.70267639999656,392.2026495999962,392.70254040000145,393.20260959999723,393.7025704999978,393.8251039999959,393.8251039999959,395.21905239999614,395.21905239999614,395.21905239999614,l,0.05535260000033304,395.2857479000013,395.2857479000013,395.2857479000013,395.78598000000056,395.78598000000056,395.78598000000056,390.8135237999959,,,,,,,,,,,194,,,,2022-12-23_09h51.49.920,PEmem_Phase-01_encoding,2022.2.4,119.80854594327602,
lists/194/stimuli_position_map_1.csv,1.2278543417367,106.588235294118,106.588235294118,106.588235294118,singletons,70.3865546218487,maps/google_map_1.png,None,objects/1/1_31.jpg,0,indoors,RugRoled.jpg,0,0,0,0,0,47,47,47,,,,,,,,,,,,,,,,,,,,,395.78598000000056,396.39903849999973,396.7860529999962,397.28614260000177,397.7861147000003,398.28613439999754,398.78599669999676,399.28605470000184,399.41061069999705,399.41061069999705,400.80266819999815,400.80266819999815,400.80266819999815,a,1.306356600005529,402.1193698999996,402.1193698999996,402.1193698999996,402.6192478000012,402.6192478000012,402.6192478000012,396.39903849999973,,,,,,,,,,,194,,,,2022-12-23_09h51.49.920,PEmem_Phase-01_encoding,2022.2.4,119.80854594327602,
lists/194/stimuli_position_map_1.csv,5.38534920634921,106.588235294118,106.588235294118,172.957983193277,singletons,308.714285714286,maps/google_map_1.png,None,objects/1/1_138.jpg,0,indoors,Napkin_Single.jpg,0,0,0,0,0,48,48,48,,,,,,,,,,,,,,,,,,,,,402.6192478000012,403.22881580000103,403.61933860000136,404.1192435999983,404.61926339999627,405.11938530000043,405.6194972000012,406.11946439999883,406.244028299996,406.244028299996,407.63624709999567,407.63624709999567,407.63624709999567,l,0.42150560000300175,408.0694541999983,408.0694541999983,408.0694541999983,408.5703990999973,408.5703990999973,408.5703990999973,403.22881580000103,,,,,,,,,,,194,,,,2022-12-23_09h51.49.920,PEmem_Phase-01_encoding,2022.2.4,119.80854594327602,
lists/194/stimuli_position_map_1.csv,0.227950513538749,106.588235294118,286.588235294118,10.0504201680672,singletons,13.0672268907563,maps/google_map_1.png,None,objects/1/1_119.jpg,0,outdoors,Archery_ArrowsBows.jpg,0,0,0,0,0,49,49,49,,,,,,,,,,,,,,,,,,,,,408.5703990999973,409.18413860000146,409.5691971999986,410.0692427999966,410.5693306999965,411.0694361999995,411.56942400000116,412.0694569999978,412.1956057999996,412.1956057999996,413.5862197000024,413.5862197000024,413.5862197000024,a,0.46328440000797855,414.0611499000006,414.0611499000006,414.0611499000006,414.5609532000017,414.5609532000017,414.5609532000017,409.18413860000146,,,,,,,,,,,194,,,,2022-12-23_09h51.49.920,PEmem_Phase-01_encoding,2022.2.4,119.80854594327602,
lists/194/stimuli_position_map_1.csv,2.37924822292383,106.588235294118,196.588235294118,16.5882352941177,low,136.390025517927,maps/google_map_1.png,29.8017902238089,objects/2/2_75.jpg,1,indoors,TeethMould.jpg,0,0,0,0,0,50,50,50,,,,,,,,,,,,,,,,,,,,,414.5609532000017,415.1729794999992,415.5611261000013,416.06095220000134,416.561082799999,417.06116669999756,417.5612103999956,418.06116949999705,418.18600129999686,418.18600129999686,419.57798000000184,419.57798000000184,419.57798000000184,l,0.2169326000075671,419.81112729999586,419.81112729999586,419.81112729999586,420.3112697999968,420.3112697999968,420.3112697999968,415.1729794999992,,,,,,,,,,,194,,,,2022-12-23_09h51.49.920,PEmem_Phase-01_encoding,2022.2.4,119.80854594327602,
lists/194/stimuli_position_map_1.csv,1.27939571389104,106.588235294118,196.588235294118,16.5882352941177,low,73.341155573372,maps/google_map_1.png,33.2470797207457,objects/1/1_89.jpg,0,outdoors,Hubcap.jpg,0,0,0,0,0,51,51,51,,,,,,,,,,,,,,,,,,,,,420.3112697999968,420.9198077999972,421.3027559999973,421.80263410000043,422.3027932999976,422.80284579999716,423.30297730000166,423.8029600000009,423.9382837000012,423.9382837000012,425.32783019999624,425.32783019999624,425.32783019999624,a,0.015513500009546988,425.35298260000127,425.35298260000127,425.35298260000127,425.85299239999586,425.85299239999586,425.85299239999586,420.9198077999972,,,,,,,,,,,194,,,,2022-12-23_09h51.49.920,PEmem_Phase-01_encoding,2022.2.4,119.80854594327602,
lists/194/stimuli_position_map_1.csv,2.16537965941162,106.588235294118,196.588235294118,16.5882352941177,low,124.130044170093,maps/google_map_1.png,17.541808875975,objects/1/1_98.jpg,0,indoors,Pasta_Spaghetti.jpg,0,0,0,0,0,52,52,52,,,,,,,,,,,,,,,,,,,,,425.85299239999586,426.4630997999993,426.8529251,427.3527959999992,427.852990899999,428.3529858999973,428.8528262999971,429.3529841999989,429.4831109000006,429.4831109000006,430.86940250000043,430.86940250000043,430.86940250000043,l,0.770941100003256,431.6528271999996,431.6528271999996,431.6528271999996,432.1530672000008,432.1530672000008,432.1530672000008,426.4630997999993,,,,,,,,,,,194,,,,2022-12-23_09h51.49.920,PEmem_Phase-01_encoding,2022.2.4,119.80854594327602,
lists/194/stimuli_position_map_1.csv,1.1818177832099,106.588235294118,196.588235294118,16.5882352941177,low,67.7475162349627,maps/google_map_1.png,38.840719059155,objects/2/2_112.jpg,1,outdoors,Toy_GasPump.jpg,0,0,0,0,0,53,53,53,,,,,,,,,,,,,,,,,,,,,432.1530672000008,432.76705989999755,433.1445970999994,433.64452719999827,434.14449539999623,434.6445621000021,435.1445306999958,435.6445823999966,435.77807929999835,435.77807929999835,437.1696957999957,437.1696957999957,437.1696957999957,a,0.17394580000836868,437.35302149999916,437.35302149999916,437.35302149999916,437.8530210999961,437.8530210999961,437.8530210999961,432.76705989999755,,,,,,,,,,,194,,,,2022-12-23_09h51.49.920,PEmem_Phase-01_encoding,2022.2.4,119.80854594327602,
lists/194/stimuli_position_map_1.csv,4.99604997347793,106.588235294118,196.588235294118,16.5882352941177,high,286.397769180263,maps/google_map_1.png,179.809533886146,objects/1/1_110.jpg,0,indoors,Belt.jpg,0,0,0,0,0,54,54,54,,,,,,,,,,,,,,,,,,,,,437.8530210999961,438.4648825999975,438.85301929999696,439.3529617000022,439.8528124000004,440.35306069999933,440.8529681,441.3530019999962,441.4770359999966,441.4770359999966,442.86986479999905,442.86986479999905,442.86986479999905,l,0.34447550000913907,443.2281320999973,443.2281320999973,443.2281320999973,443.7279273000022,443.7279273000022,443.7279273000022,438.4648825999975,,,,,,,,,,,194,,,,2022-12-23_09h51.49.920,PEmem_Phase-01_encoding,2022.2.4,119.80854594327602,
lists/194/stimuli_position_map_1.csv,1.44797635829462,106.588235294118,196.588235294118,16.5882352941177,low,83.0050141697553,maps/google_map_1.png,23.5832211243624,objects/1/1_96.jpg,0,indoors,IroningBoard.jpg,0,0,0,0,0,55,55,55,,,,,,,,,,,,,,,,,,,,,443.7279273000022,444.33819270000095,444.7281548999963,445.2281365000017,445.71968919999927,446.2198425999959,446.72826599999826,447.2282142999975,447.3532427999962,447.3532427999962,448.7446656999964,448.7446656999964,448.7446656999964,l,0.29970650000177557,449.0530366999956,449.0530366999956,449.0530366999956,449.55308089999744,449.55308089999744,449.55308089999744,444.33819270000095,,,,,,,,,,,194,,,,2022-12-23_09h51.49.920,PEmem_Phase-01_encoding,2022.2.4,119.80854594327602,
lists/194/stimuli_position_map_1.csv,2.66220514726578,106.588235294118,196.588235294118,16.5882352941177,medium,152.610486148994,maps/google_map_1.png,46.0222508548758,objects/1/1_11.jpg,0,indoors,Licorice.jpg,0,0,0,0,0,56,56,56,,,,,,,,,,,,,,,,,,,,,449.55308089999744,450.1604586999965,450.5530309999958,451.0532300999985,451.5530828999981,452.05304169999727,452.5533147000024,453.0529736999961,453.1824280000001,453.1824280000001,454.56990139999834,454.56990139999834,454.56990139999834,l,0.012573000007250812,454.5947937000019,454.5947937000019,454.5947937000019,455.09499250000226,455.09499250000226,455.09499250000226,450.1604586999965,,,,,,,,,,,194,,,,2022-12-23_09h51.49.920,PEmem_Phase-01_encoding,2022.2.4,119.80854594327602,
lists/194/stimuli_position_map_1.csv,1.9922534713804,106.588235294118,196.588235294118,16.5882352941177,low,114.205613009068,maps/google_map_1.png,7.61737771494995,objects/1/1_52.jpg,0,indoors,Star.jpg,0,0,0,0,0,57,57,57,,,,,,,,,,,,,,,,,,,,,455.09499250000226,455.70693570000003,456.0947290999975,456.59480279999843,457.0865784999987,457.5865436999957,458.0950367999976,458.5949660999977,458.72074879999855,458.72074879999855,460.1117241999964,460.1117241999964,460.1117241999964,l,0.3293017000032705,460.45324080000137,460.45324080000137,460.45324080000137,460.95314060000237,460.95314060000237,460.95314060000237,455.70693570000003,,,,,,,,,,,194,,,,2022-12-23_09h51.49.920,PEmem_Phase-01_encoding,2022.2.4,119.80854594327602,
lists/194/stimuli_position_map_1.csv,1.13654835852845,106.588235294118,196.588235294118,16.5882352941177,low,65.1524536736053,maps/google_map_1.png,41.4357816205124,objects/1/1_79.jpg,0,indoors,Pencil.jpg,0,0,0,0,0,58,58,58,,,,,,,,,,,,,,,,,,,,,460.95314060000237,461.56370149999566,461.95464840000204,462.46152459999576,462.95307209999737,463.4531155000004,463.9531105999995,464.45317509999586,464.5779021999988,464.5779021999988,465.970006800002,465.970006800002,465.970006800002,l,0.01707630000601057,466.0032360999976,466.0032360999976,466.0032360999976,466.5030814999991,466.5030814999991,466.5030814999991,461.56370149999566,,,,,,,,,,,194,,,,2022-12-23_09h51.49.920,PEmem_Phase-01_encoding,2022.2.4,119.80854594327602,
lists/194/stimuli_position_map_1.csv,4.52594244313645,106.588235294118,196.588235294118,16.5882352941177,high,259.448929861325,maps/google_map_1.png,152.860694567207,objects/1/1_58.jpg,0,outdoors,Cloud.jpg,0,0,0,0,0,59,59,59,,,,,,,,,,,,,,,,,,,,,466.5030814999991,467.111103999996,467.50321009999607,468.00320179999835,468.50325729999895,469.0032024999964,469.50324530000216,470.00330219999887,470.12737509999715,470.12737509999715,471.5200820999962,471.5200820999962,471.5200820999962,l,2.607043700001668,474.1367840000021,474.1367840000021,474.1367840000021,474.63651579999714,474.63651579999714,474.63651579999714,467.111103999996,,,,,,,,,,,194,,,,2022-12-23_09h51.49.920,PEmem_Phase-01_encoding,2022.2.4,119.80854594327602,
lists/194/stimuli_position_map_1.csv,1.88681400584516,106.588235294118,196.588235294118,16.5882352941177,low,108.161312436984,maps/google_map_1.png,1.57307714286616,objects/2/2_91.jpg,1,indoors,TortillaChip.jpg,0,0,0,0,0,60,60,60,,,,,,,,,,,,,,,,,,,,,474.63651579999714,475.24607919999835,475.6366326999996,476.13687950000167,476.63657489999605,477.1368880000009,477.6368533999994,478.1369276999976,478.263388899999,478.263388899999,479.64485250000143,479.64485250000143,479.64485250000143,l,0.23522780000348575,479.89513579999766,479.89513579999766,479.89513579999766,480.3950225000008,480.3950225000008,480.3950225000008,475.24607919999835,,,,,,,,,,,194,,,,2022-12-23_09h51.49.920,PEmem_Phase-01_encoding,2022.2.4,119.80854594327602,
lists/194/stimuli_position_map_1.csv,1.72859882938947,106.588235294118,196.588235294118,16.5882352941177,low,99.091652640161,maps/google_map_1.png,7.49658265395671,objects/2/2_91.jpg,1,indoors,TortillaChip.jpg,0,0,0,0,0,61,61,61,,,,,,,,,,,,,,,,,,,,,480.3950225000008,481.00616340000124,481.3952943999975,481.895268100001,482.3868475999989,482.88679129999946,483.3952367999955,483.89608600000065,484.0215429000018,484.0215429000018,485.4118010999955,485.4118010999955,485.4118010999955,l,0.43406120000145165,485.8617978999973,485.8617978999973,485.8617978999973,486.36169789999985,486.36169789999985,486.36169789999985,481.00616340000124,,,,,,,,,,,194,,,,2022-12-23_09h51.49.920,PEmem_Phase-01_encoding,2022.2.4,119.80854594327602,
lists/194/stimuli_position_map_1.csv,5.37607554785427,106.588235294118,196.588235294118,16.5882352941177,high,308.182674717761,maps/google_map_1.png,158.405560576357,objects/1/1_26.jpg,0,indoors,Razor.jpg,0,0,0,0,0,62,62,62,,,,,,,,,,,,,,,,,,,,,486.36169789999985,486.96979799999826,487.3615820999985,487.8617993000007,488.35448709999764,488.86186749999615,489.36175699999876,489.86196149999887,489.98663849999866,489.98663849999866,491.37852089999797,491.37852089999797,491.37852089999797,l,0.27917860000161454,491.67002749999665,491.67002749999665,491.67002749999665,492.1702041999961,492.1702041999961,492.1702041999961,486.96979799999826,,,,,,,,,,,194,,,,2022-12-23_09h51.49.920,PEmem_Phase-01_encoding,2022.2.4,119.80854594327602,
lists/194/stimuli_position_map_1.csv,3.50929967497228,106.588235294118,196.588235294118,16.5882352941177,medium,201.170045062105,maps/google_map_1.png,94.5818097679876,objects/1/1_126.jpg,0,outdoors,Bench_Park.jpg,0,0,0,0,0,63,63,63,,,,,,,,,,,,,,,,,,,,,492.1702041999961,492.7835092999958,493.17021119999845,493.67023089999566,494.17033629999787,494.670334800001,495.17037880000134,495.67030859999795,495.7949137999967,495.7949137999967,497.1783800999983,497.1783800999983,497.1783800999983,a,0.3115403000047081,497.50351539999974,497.50351539999974,497.50351539999974,498.0034435999987,498.0034435999987,498.0034435999987,492.7835092999958,,,,,,,,,,,194,,,,2022-12-23_09h51.49.920,PEmem_Phase-01_encoding,2022.2.4,119.80854594327602,
lists/194/stimuli_position_map_1.csv,4.70120448179272,106.588235294118,106.588235294118,43.2352941176471,singletons,269.495798319328,maps/google_map_1.png,None,objects/1/1_123.jpg,0,indoors,Chair_Rocking.jpg,0,0,0,0,0,64,64,64,,,,,,,,,,,,,,,,,,,,,498.0034435999987,498.61857049999526,498.9955362999972,499.4953305000017,499.99554089999583,500.4954593000002,501.00363339999603,501.5035953999977,501.631008999997,501.631008999997,503.0202735999992,503.0202735999992,503.0202735999992,l,2.009964700002456,505.045478,505.045478,505.045478,505.54540379999526,505.54540379999526,505.54540379999526,498.61857049999526,,,,,,,,,,,194,,,,2022-12-23_09h51.49.920,PEmem_Phase-01_encoding,2022.2.4,119.80854594327602,
lists/194/stimuli_position_map_1.csv,3.06655351718873,106.588235294118,196.588235294118,16.5882352941177,medium,175.789692068144,maps/google_map_1.png,69.2014567740261,objects/1/1_65.jpg,0,indoors,Mattress.jpg,0,0,0,0,0,65,65,65,,,,,,,,,,,,,,,,,,,,,505.54540379999526,506.1603230999972,506.54537020000134,507.0454668999955,507.5453884000017,508.04561999999714,508.54560350000247,509.0456223000001,509.1738340000011,509.1738340000011,510.56254790000094,510.56254790000094,510.56254790000094,l,0.46026680000068154,511.0369942999969,511.0369942999969,511.0369942999969,511.53712309999537,511.53712309999537,511.53712309999537,506.1603230999972,,,,,,,,,,,194,,,,2022-12-23_09h51.49.920,PEmem_Phase-01_encoding,2022.2.4,119.80854594327602,
lists/194/stimuli_position_map_1.csv,3.2896175766339,106.588235294118,196.588235294118,16.5882352941177,medium,188.576803756083,maps/google_map_1.png,81.9885684619658,objects/1/1_114.jpg,0,outdoors,Grenade.jpg,0,0,0,0,0,66,66,66,,,,,,,,,,,,,,,,,,,,,511.53712309999537,512.1509492999976,512.5371362000005,513.0371528999967,513.536987200001,514.0371655999988,514.5371918000019,515.0374717000013,515.1652897999957,515.1652897999957,516.5536292999968,516.5536292999968,516.5536292999968,a,1.2575144000074943,517.8204433999999,517.8204433999999,517.8204433999999,518.3204891999994,518.3204891999994,518.3204891999994,512.1509492999976,,,,,,,,,,,194,,,,2022-12-23_09h51.49.920,PEmem_Phase-01_encoding,2022.2.4,119.80854594327602,
lists/194/stimuli_position_map_1.csv,2.38563772175537,106.588235294118,16.5882352941177,106.588235294118,singletons,136.756302521008,maps/google_map_1.png,None,objects/1/1_99.jpg,0,indoors,Toy_DollHomeMade.jpg,0,0,0,0,0,67,67,67,,,,,,,,,,,,,,,,,,,,,518.3204891999994,518.9331745000018,519.3202744000009,519.8203414000018,520.3203461000012,520.8204693000007,521.3120065999974,521.8121677999952,521.9446470999974,521.9446470999974,523.3371398000018,523.3371398000018,523.3371398000018,l,0.9019791000027908,524.2538989000022,524.2538989000022,524.2538989000022,524.7538081000021,524.7538081000021,524.7538081000021,518.9331745000018,,,,,,,,,,,194,,,,2022-12-23_09h51.49.920,PEmem_Phase-01_encoding,2022.2.4,119.80854594327602,
lists/194/stimuli_position_map_1.csv,5.09060440001762,106.588235294118,196.588235294118,16.5882352941177,high,291.818086625214,maps/google_map_1.png,174.770148668904,objects/1/1_29.jpg,0,indoors,DogTreat.jpg,0,0,0,0,0,68,68,68,,,,,,,,,,,,,,,,,,,,,524.7538081000021,525.3623594000019,525.7538706999985,526.2538282000023,526.7537336000023,527.2537564000013,527.753848100001,528.2539849000023,528.3797930000001,528.3797930000001,529.7706088999985,529.7706088999985,529.7706088999985,l,0.20932920000632294,529.9956321999998,529.9956321999998,529.9956321999998,530.4954556000012,530.4954556000012,530.4954556000012,525.3623594000019,,,,,,,,,,,194,,,,2022-12-23_09h51.49.920,PEmem_Phase-01_encoding,2022.2.4,119.80854594327602,
lists/194/stimuli_position_map_1.csv,4.28019234360411,106.588235294118,286.588235294118,145.806722689076,singletons,245.361344537815,maps/google_map_1.png,None,objects/1/1_39.jpg,0,indoors,Clip_Binder.jpg,0,0,0,0,0,69,69,69,,,,,,,,,,,,,,,,,,,,,530.4954556000012,531.1073178000006,531.495462400002,531.9955977999998,532.4955788000007,532.9954724999989,533.4954587999964,533.9956649000014,534.1258421999955,534.1258421999955,535.5122470999995,535.5122470999995,535.5122470999995,l,0.1969701999987592,535.7206474999984,535.7206474999984,535.7206474999984,536.2203355999955,536.2203355999955,536.2203355999955,531.1073178000006,,,,,,,,,,,194,,,,2022-12-23_09h51.49.920,PEmem_Phase-01_encoding,2022.2.4,119.80854594327602,
lists/194/stimuli_position_map_1.csv,2.85927637721755,106.588235294118,286.588235294118,311.731092436975,singletons,163.90756302521,maps/google_map_1.png,None,objects/1/1_19.jpg,0,outdoors,Birdhouse.jpg,0,0,0,0,0,70,70,70,,,,,,,,,,,,,,,,,,,,,536.2203355999955,536.8313609999968,537.2203224999976,537.7204196000021,538.2204445000025,538.7205695000011,539.2206179999994,539.720625199996,539.8455791000015,539.8455791000015,541.2372247999956,541.2372247999956,541.2372247999956,l,0.07537990000128048,541.3290799999959,541.3290799999959,541.3290799999959,541.8289057000002,541.8289057000002,541.8289057000002,536.8313609999968,,,,,,,,,,,194,,,,2022-12-23_09h51.49.920,PEmem_Phase-01_encoding,2022.2.4,119.80854594327602,
lists/194/stimuli_position_map_1.csv,4.59440555490772,106.588235294118,196.588235294118,16.5882352941177,high,263.373566841844,maps/google_map_1.png,156.785331547726,objects/1/1_78.jpg,0,outdoors,Boat_Row.jpg,0,0,0,0,0,71,71,71,,,,,,,,,,,,,,,,,,,,,541.8289057000002,542.4356802999973,542.8290350000025,543.3290246999968,543.8290091000017,544.3291867000007,544.8205740999983,545.320504700001,545.4491816000009,545.4491816000009,546.8457673000012,546.8457673000012,546.8457673000012,a,0.2099893999984488,547.0707201999976,547.0707201999976,547.0707201999976,547.5706412,547.5706412,547.5706412,542.4356802999973,,,,,,,,,,,194,,,,2022-12-23_09h51.49.920,PEmem_Phase-01_encoding,2022.2.4,119.80854594327602,
lists/194/stimuli_position_map_1.csv,1.37473629328721,106.588235294118,196.588235294118,16.5882352941177,low,78.8065391056364,maps/google_map_1.png,27.7816961884813,objects/2/2_102.jpg,1,outdoors,Ship_Cruise.jpg,0,0,0,0,0,72,72,72,,,,,,,,,,,,,,,,,,,,,547.5706412,548.1782969999986,548.5621832999968,549.0622557999959,549.5622597999973,550.0622743999993,550.5622885999983,551.0624001999968,551.1943964999955,551.1943964999955,552.5872946000018,552.5872946000018,552.5872946000018,l,1.025440700002946,553.6291756999999,553.6291756999999,553.6291756999999,554.1292169000008,554.1292169000008,554.1292169000008,548.1782969999986,,,,,,,,,,,194,,,,2022-12-23_09h51.49.920,PEmem_Phase-01_encoding,2022.2.4,119.80854594327602,
lists/194/stimuli_position_map_1.csv,3.83851059992317,106.588235294118,196.588235294118,16.5882352941177,medium,220.042008912793,maps/google_map_1.png,113.453773618676,objects/1/1_16.jpg,0,indoors,Qtip_Single.jpg,0,0,0,0,0,73,73,73,,,,,,,,,,,,,,,,,,,,,554.1292169000008,554.7425690000018,555.1205709999995,555.6208081000004,556.1291438999979,556.6291435000021,557.1291670999999,557.629202199998,557.7542702999999,557.7542702999999,559.1457200000004,559.1457200000004,559.1457200000004,l,0.28396559999964666,559.4459123999986,559.4459123999986,559.4459123999986,559.9455827999991,559.9455827999991,559.9455827999991,554.7425690000018,,,,,,,,,,,194,,,,2022-12-23_09h51.49.920,PEmem_Phase-01_encoding,2022.2.4,119.80854594327602,
lists/194/stimuli_position_map_1.csv,3.96443323996265,106.588235294118,286.588235294118,230.27731092437,singletons,227.260504201681,maps/google_map_1.png,None,objects/1/1_54.jpg,0,outdoors,LightHouse.jpg,0,0,0,0,0,74,74,74,,,,,,,,,,,,,,,,,,,,,559.9455827999991,560.5572226000004,560.9458253999983,561.4457750000001,561.9458124000012,562.4459960000022,562.9459946999996,563.4499657999986,563.5693523000009,563.5693523000009,564.9624639999965,564.9624639999965,564.9624639999965,l,0.04178600000886945,565.012516499999,565.012516499999,565.012516499999,565.5124507,565.5124507,565.5124507,560.5572226000004,,,,,,,,,,,194,,,,2022-12-23_09h51.49.920,PEmem_Phase-01_encoding,2022.2.4,119.80854594327602,
lists/194/stimuli_position_map_1.csv,3.39301522290087,106.588235294118,196.588235294118,16.5882352941177,medium,194.504057363744,maps/google_map_1.png,87.9158220696263,objects/1/1_106.jpg,0,indoors,Cheque.jpg,0,0,0,0,0,75,75,75,,,,,,,,,,,,,,,,,,,,,565.5124507,566.1245703999957,566.5123941999991,567.0122570999956,567.5124480000013,568.0124985000002,568.5126497000019,569.0126238000012,569.1399793000019,569.1399793000019,570.5294766000006,570.5294766000006,570.5294766000006,l,0.6299924000049941,571.1709688999981,571.1709688999981,571.1709688999981,571.6709210999979,571.6709210999979,571.6709210999979,566.1245703999957,,,,,,,,,,,194,,,,2022-12-23_09h51.49.920,PEmem_Phase-01_encoding,2022.2.4,119.80854594327602,
lists/194/stimuli_position_map_1.csv,1.74328053061986,106.588235294118,196.588235294118,16.5882352941177,low,99.9332788253425,maps/google_map_1.png,6.65495646877513,objects/2/2_75.jpg,1,indoors,TeethMould.jpg,0,0,0,0,0,76,76,76,,,,,,,,,,,,,,,,,,,,,571.6709210999979,572.2856038999962,572.6709289999999,573.1709465999957,573.6626716999963,574.162625799996,574.6626057999965,575.1626875000002,575.2995289999963,575.2995289999963,576.6876428999967,576.6876428999967,576.6876428999967,l,0.026302600002964027,576.7292785999962,576.7292785999962,576.7292785999962,577.2294047999967,577.2294047999967,577.2294047999967,572.2856038999962,,,,,,,,,,,194,,,,2022-12-23_09h51.49.920,PEmem_Phase-01_encoding,2022.2.4,119.80854594327602,
lists/194/stimuli_position_map_1.csv,1.4816739030561,106.588235294118,196.588235294118,16.5882352941177,low,84.936720557356,maps/google_map_1.png,21.6515147367617,objects/2/2_76.jpg,1,indoors,Dart.jpg,0,0,0,0,0,77,77,77,,,,,,,,,,,,,,,,,,,,,577.2294047999967,577.8422501000023,578.2294021999987,578.7293052999958,579.229497399996,579.7293107000005,580.2295192999954,580.7295035999996,580.8565669999953,580.8565669999953,582.245918200002,582.245918200002,582.245918200002,l,0.08739780000178143,582.3461160000006,582.3461160000006,582.3461160000006,582.8459374000013,582.8459374000013,582.8459374000013,577.8422501000023,,,,,,,,,,,194,,,,2022-12-23_09h51.49.920,PEmem_Phase-01_encoding,2022.2.4,119.80854594327602,
lists/194/stimuli_position_map_1.csv,4.02445810836725,106.588235294118,196.588235294118,16.5882352941177,medium,230.701420224874,maps/google_map_1.png,124.113184930757,objects/1/1_50.jpg,0,outdoors,TowerEiffel.jpg,0,0,0,0,0,78,78,78,,,,,,,,,,,,,,,,,,,,,582.8459374000013,583.4577384000004,583.8458347999986,584.3461459999962,584.8461137999984,585.3460365999999,585.8461476000011,,586.4667217000024,586.4667217000024,587.8545020999954,587.8545020999954,587.8545020999954,l,0.27292400000442285,588.1378685000018,588.1378685000018,588.1378685000018,588.6376851000023,588.6376851000023,588.6376851000023,583.4577384000004,,,,,,,,,,,194,,,,2022-12-23_09h51.49.920,PEmem_Phase-01_encoding,2022.2.4,119.80854594327602,
lists/194/stimuli_position_map_1.csv,6.0694939309057,106.588235294118,16.5882352941177,287.596638655462,singletons,347.932773109244,maps/google_map_1.png,None,objects/1/1_70.jpg,0,outdoors,Colosseum.jpg,0,0,0,0,0,79,79,79,,,,,,,,,,,,,,,,,,,,,588.6376851000023,589.2472611999983,589.6378521000006,590.137662299996,590.6377215999964,591.1378801999963,591.6379262999981,592.1380053999965,592.2673101999972,592.2673101999972,593.6545081000004,593.6545081000004,593.6545081000004,a,0.24813549999817042,593.9128773999983,593.9128773999983,593.9128773999983,594.4126973999955,594.4126973999955,594.4126973999955,589.2472611999983,,,,,,,,,,,194,,,,2022-12-23_09h51.49.920,PEmem_Phase-01_encoding,2022.2.4,119.80854594327602,
lists/194/stimuli_position_map_1.csv,1.44406462408518,106.588235294118,196.588235294118,16.5882352941177,low,82.7807746290868,maps/google_map_1.png,23.8074606650308,objects/1/1_37.jpg,0,indoors,SmokeDetector.jpg,0,0,0,0,0,80,80,80,,,,,,,,,,,,,,,,,,,,,594.4126973999955,595.024339399999,595.4129116999975,595.9129608000003,596.4131225999954,596.9131940000007,597.4047266999987,597.9047327000007,598.0444843000005,598.0444843000005,599.4305344999957,599.4305344999957,599.4305344999957,l,0.5142457000038121,599.9546107999995,599.9546107999995,599.9546107999995,600.454673799999,600.454673799999,600.454673799999,595.024339399999,,,,,,,,,,,194,,,,2022-12-23_09h51.49.920,PEmem_Phase-01_encoding,2022.2.4,119.80854594327602,
lists/194/stimuli_position_map_1.csv,2.70066224901255,106.588235294118,196.588235294118,16.5882352941177,low,154.815033382885,maps/google_map_1.png,48.2267980887674,objects/1/1_82.jpg,0,outdoors,Ostrich.jpg,0,0,0,0,0,81,81,81,,,,,,,,,,,,,,,,,,,,,600.454673799999,601.0691915999996,601.4545280999955,601.954562699997,602.4545306,602.9547313000003,603.4546668999974,603.9558754999962,604.0826975000018,604.0826975000018,605.4712083999984,605.4712083999984,605.4712083999984,a,0.16959210000641178,605.6546841000018,605.6546841000018,605.6546841000018,606.1545041999998,606.1545041999998,606.1545041999998,601.0691915999996,,,,,,,,,,,194,,,,2022-12-23_09h51.49.920,PEmem_Phase-01_encoding,2022.2.4,119.80854594327602,
lists/194/stimuli_position_map_1.csv,1.78332170123487,106.588235294118,196.588235294118,16.5882352941177,low,102.228632554865,maps/google_map_1.png,4.35960273925228,objects/1/1_10.jpg,0,outdoors,Fish_Rockbass.jpg,0,0,0,0,0,82,82,82,,,,,,,,,,,,,,,,,,,,,606.1545041999998,606.7636487999989,607.1547854000019,607.6546368999989,608.1547567000016,608.6544537000009,609.1550922999959,609.654655899998,609.7874138999978,609.7874138999978,611.171302900002,611.171302900002,611.171302900002,a,0.12013120000483468,611.3047758999965,611.3047758999965,611.3047758999965,611.8047409999999,611.8047409999999,611.8047409999999,606.7636487999989,,,,,,,,,,,194,,,,2022-12-23_09h51.49.920,PEmem_Phase-01_encoding,2022.2.4,119.80854594327602,
lists/194/stimuli_position_map_1.csv,1.90771760203764,106.588235294118,196.588235294118,16.5882352941177,low,109.35960776012,maps/google_map_1.png,2.77137246600208,objects/1/1_48.jpg,0,indoors,Corkscrew.jpg,0,0,0,0,0,83,83,83,,,,,,,,,,,,,,,,,,,,,611.8047409999999,612.417612600002,612.8054806,613.3046621999965,613.8046491999994,614.3048159999962,614.8046456000011,615.304764499997,615.4315833,615.4315833,616.821383399998,616.821383399998,616.821383399998,l,0.7321454000048107,617.562929599997,617.562929599997,617.562929599997,618.0631254999971,618.0631254999971,618.0631254999971,612.417612600002,,,,,,,,,,,194,,,,2022-12-23_09h51.49.920,PEmem_Phase-01_encoding,2022.2.4,119.80854594327602,
lists/194/stimuli_position_map_1.csv,3.09558307295883,106.588235294118,196.588235294118,16.5882352941177,medium,177.453806730124,maps/google_map_1.png,70.8655714360065,objects/1/1_111.jpg,0,indoors,Hand.jpg,0,0,0,0,0,84,84,84,,,,,,,,,,,,,,,,,,,,,618.0631254999971,618.6749564999991,619.0628882999954,619.5631749000022,620.0631632000004,620.563020900001,621.0631735999996,621.5631941999964,621.6888026000015,621.6888026000015,623.0797606999986,623.0797606999986,623.0797606999986,l,0.10797300000558607,623.1962655000025,623.1962655000025,623.1962655000025,623.6965635000015,623.6965635000015,623.6965635000015,618.6749564999991,,,,,,,,,,,194,,,,2022-12-23_09h51.49.920,PEmem_Phase-01_encoding,2022.2.4,119.80854594327602,
lists/194/stimuli_position_map_1.csv,1.3952505205741,106.588235294118,196.588235294118,16.5882352941177,low,79.9825139182607,maps/google_map_1.png,26.605721375857,objects/1/1_59.jpg,1,outdoors,Hedgehog.jpg,0,0,0,0,0,85,85,85,,,,,,,,,,,,,,,,,,,,,623.6965635000015,624.3063265000019,624.6965392999991,625.1963401999965,625.6966291999997,626.1973870000002,626.696463399996,627.1965617000023,627.3270348000005,627.3270348000005,628.7132698999994,628.7132698999994,628.7132698999994,l,0.5665343000073335,629.2882413999978,629.2882413999978,629.2882413999978,629.7881917999985,629.7881917999985,629.7881917999985,624.3063265000019,,,,,,,,,,,194,,,,2022-12-23_09h51.49.920,PEmem_Phase-01_encoding,2022.2.4,119.80854594327602,
lists/194/stimuli_position_map_1.csv,1.76440000875015,106.588235294118,196.588235294118,16.5882352941177,low,101.143949546187,maps/google_map_1.png,5.44428574793068,objects/1/1_120.jpg,0,outdoors,Hose_Garden.jpg,0,0,0,0,0,86,86,86,,,,,,,,,,,,,,,,,,,,,629.7881917999985,630.3981819999972,630.7881942999957,631.2882194999984,631.7882487999959,632.2882619000011,632.7881735999981,633.2881305999981,633.4129837,633.4129837,634.8049534999955,634.8049534999955,634.8049534999955,l,0.3414379000023473,635.1547460000002,635.1547460000002,635.1547460000002,635.6549496000007,635.6549496000007,635.6549496000007,630.3981819999972,,,,,,,,,,,194,,,,2022-12-23_09h51.49.920,PEmem_Phase-01_encoding,2022.2.4,119.80854594327602,
lists/194/stimuli_position_map_1.csv,4.82372719583087,106.588235294118,196.588235294118,16.5882352941177,high,276.519393391579,maps/google_map_1.png,169.931158097461,objects/1/1_40.jpg,0,outdoors,LicensePlate.jpg,0,0,0,0,0,87,87,87,,,,,,,,,,,,,,,,,,,,,635.6549496000007,636.2662888999985,636.6547800999979,637.1550081000023,637.6549977999966,638.1550510000015,638.6548636000007,639.1548574999979,639.2822240999958,639.2822240999958,640.6715091000005,640.6715091000005,640.6715091000005,l,0.7319264000107069,641.4133504999991,641.4133504999991,641.4133504999991,641.9133872999955,641.9133872999955,641.9133872999955,636.2662888999985,,,,,,,,,,,194,,,,2022-12-23_09h51.49.920,PEmem_Phase-01_encoding,2022.2.4,119.80854594327602,
lists/194/stimuli_position_map_1.csv,1.54361344537815,106.588235294118,16.5882352941177,353.966386554622,singletons,88.4873949579832,maps/google_map_1.png,None,objects/1/1_102.jpg,0,outdoors,Stingray.jpg,0,0,0,0,0,88,88,88,,,,,,,,,,,,,,,,,,,,,641.9133872999955,642.5246266999966,642.9134201999987,643.4136063999977,643.9049976999959,644.4051106999977,644.9050820999983,645.4052628999998,645.5427532999965,645.5427532999965,646.9299710999985,646.9299710999985,646.9299710999985,a,1.3049205999996047,648.2467292000001,648.2467292000001,648.2467292000001,648.7465807999979,648.7465807999979,648.7465807999979,642.5246266999966,,,,,,,,,,,194,,,,2022-12-23_09h51.49.920,PEmem_Phase-01_encoding,2022.2.4,119.80854594327602,
lists/194/stimuli_position_map_1.csv,1.85937254901961,106.588235294118,286.588235294118,212.176470588235,singletons,106.588235294118,maps/google_map_1.png,None,objects/1/1_47.jpg,0,outdoors,Inukshuk.jpg,0,0,0,0,0,89,89,89,,,,,,,,,,,,,,,,,,,,,648.7465807999979,649.3602638000011,649.7467195999998,650.2469778000013,650.7468217999995,651.2471043999976,651.7469595000002,652.2468941999978,652.3782697999995,652.3782697999995,653.7633570999969,653.7633570999969,653.7633570999969,a,0.033014400003594346,653.8050656999985,653.8050656999985,653.8050656999985,654.305191899999,654.305191899999,654.305191899999,649.3602638000011,,,,,,,,,,,194,,,,2022-12-23_09h51.49.920,PEmem_Phase-01_encoding,2022.2.4,119.80854594327602,
lists/194/stimuli_position_map_1.csv,2.10121302141245,106.588235294118,196.588235294118,16.5882352941177,low,120.451701864408,maps/google_map_1.png,13.8634665702902,objects/2/2_112.jpg,1,outdoors,Toy_GasPump.jpg,0,0,0,0,0,90,90,90,,,,,,,,,,,,,,,,,,,,,654.305191899999,654.9136935999995,655.3050552999994,655.8050166999965,656.3051774999985,656.8052702999994,657.2966300999979,657.7967850999994,657.9337129999985,657.9337129999985,659.3218135999996,659.3218135999996,659.3218135999996,a,0.15975550000439398,659.4969190999982,659.4969190999982,659.4969190999982,659.9969243000014,659.9969243000014,659.9969243000014,654.9136935999995,,,,,,,,,,,194,,,,2022-12-23_09h51.49.920,PEmem_Phase-01_encoding,2022.2.4,119.80854594327602,
lists/194/stimuli_position_map_1.csv,4.46425144798108,106.588235294118,196.588235294118,16.5882352941177,high,255.91250338745,maps/google_map_1.png,149.324268093333,objects/1/1_85.jpg,0,outdoors,Panda.jpg,0,0,0,0,0,91,91,91,,,,,,,,,,,,,,,,,,,,,659.9969243000014,660.6127695999967,660.9968442999962,661.4977696999995,661.9970063000001,662.4968604000023,662.9970352000018,663.4970237000016,663.6256842000003,663.6256842000003,665.0136992999978,665.0136992999978,665.0136992999978,a,0.08955580000474583,665.1136795999992,665.1136795999992,665.1136795999992,665.6135264999975,665.6135264999975,665.6135264999975,660.6127695999967,,,,,,,,,,,194,,,,2022-12-23_09h51.49.920,PEmem_Phase-01_encoding,2022.2.4,119.80854594327602,
lists/194/stimuli_position_map_1.csv,4.46141503514009,106.588235294118,196.588235294118,16.5882352941177,high,255.749906472999,maps/google_map_1.png,149.161671178881,objects/1/1_105.jpg,0,outdoors,Hippopotamus.jpg,0,0,0,0,0,92,92,92,,,,,,,,,,,,,,,,,,,,,665.6135264999975,666.2250445999962,666.6135626999967,667.113743599999,667.6136018999969,668.1137106999959,668.6137507999956,669.1134829000002,669.2372094999955,669.2372094999955,670.6316220000008,670.6316220000008,670.6316220000008,a,0.383694000003743,671.0301440999974,671.0301440999974,671.0301440999974,671.5301964999962,671.5301964999962,671.5301964999962,666.2250445999962,,,,,,,,,,,194,,,,2022-12-23_09h51.49.920,PEmem_Phase-01_encoding,2022.2.4,119.80854594327602,
lists/194/stimuli_position_map_1.csv,1.82460699804506,106.588235294118,196.588235294118,16.5882352941177,low,104.595305620417,maps/google_map_1.png,1.99292967370018,objects/2/2_102.jpg,1,outdoors,Ship_Cruise.jpg,0,0,0,0,0,93,93,93,,,,,,,,,,,,,,,,,,,,,671.5301964999962,672.1375458999973,672.530161900002,673.030133399996,673.530247900002,674.0302376999971,674.530239599997,675.0302423999965,675.1574404999992,675.1574404999992,676.5469872999965,676.5469872999965,676.5469872999965,a,0.12387150000722613,676.6803947000008,676.6803947000008,676.6803947000008,677.1802649999954,677.1802649999954,677.1802649999954,672.1375458999973,,,,,,,,,,,194,,,,2022-12-23_09h51.49.920,PEmem_Phase-01_encoding,2022.2.4,119.80854594327602,
lists/194/stimuli_position_map_1.csv,1.85026068615877,106.588235294118,196.588235294118,16.5882352941177,low,106.065899206554,maps/google_map_1.png,0.522336087563704,objects/1/1_14.jpg,0,outdoors,Bird_Peacock.jpg,0,0,0,0,0,94,94,94,,,,,,,,,,,,,,,,,,,,,677.1802649999954,677.7902037000022,678.1803256999992,678.6802631999963,679.1811384999965,679.6802026000005,680.1803212000013,680.6803891999953,680.813956799997,680.813956799997,682.1970671999952,682.1970671999952,682.1970671999952,a,0.17409890000271844,682.3803226000018,682.3803226000018,682.3803226000018,682.8801588999995,682.8801588999995,682.8801588999995,677.7902037000022,,,,,,,,,,,194,,,,2022-12-23_09h51.49.920,PEmem_Phase-01_encoding,2022.2.4,119.80854594327602,
lists/194/stimuli_position_map_1.csv,1.52244938256881,106.588235294118,196.588235294118,16.5882352941177,low,87.2741684275116,maps/google_map_1.png,19.3140668666061,objects/2/2_102.jpg,1,outdoors,Ship_Cruise.jpg,0,0,0,0,0,95,95,95,,,,,,,,,,,,,,,,,,,,,682.8801588999995,683.4951501999967,683.8802161999993,684.3802499000012,684.8802614000015,685.3804212999967,685.8722592999984,686.3722077999992,686.5084606000019,686.5084606000019,687.9053586000009,687.9053586000009,687.9053586000009,a,0.20411420000891667,688.1222446999964,688.1222446999964,688.1222446999964,688.6221817999976,688.6221817999976,688.6221817999976,683.4951501999967,,,,,,,,,,,194,,,,2022-12-23_09h51.49.920,PEmem_Phase-01_encoding,2022.2.4,119.80854594327602,
lists/194/stimuli_position_map_1.csv,1.83522549189339,106.588235294118,196.588235294118,16.5882352941177,low,105.20400908943,maps/google_map_1.png,1.38422620468753,objects/1/1_5.jpg,0,indoors,CoffeeBeans.jpg,0,0,0,0,0,96,96,96,,,,,,,,,,,,,,,,,,,,,688.6221817999976,689.2317174999989,689.6220383999971,690.1223584999971,690.6222961000021,691.1220975999968,691.622366399999,692.1222340000022,692.2480749000024,692.2480749000024,693.638841699998,693.638841699998,693.638841699998,a,0.2533889000042109,693.9053421999997,693.9053421999997,693.9053421999997,694.4055503999989,694.4055503999989,694.4055503999989,689.2317174999989,,,,,,,,,,,194,,,,2022-12-23_09h51.49.920,PEmem_Phase-01_encoding,2022.2.4,119.80854594327602,
lists/194/stimuli_position_map_1.csv,4.85843945209155,106.588235294118,196.588235294118,16.5882352941177,high,278.509267954293,maps/google_map_1.png,171.921032660175,objects/1/1_2.jpg,0,indoors,Teabag.jpg,0,0,0,0,0,97,97,97,,,,,,,,,,,,,,,,,,,,,694.4055503999989,695.0120155999975,695.405477100001,695.9054514000018,696.3972179999982,696.8972987000016,697.3972358999963,697.897229000002,698.0312359999953,698.0312359999953,699.422241100001,699.422241100001,699.422241100001,a,0.46849320000910666,699.9056777000005,699.9056777000005,699.9056777000005,700.4056851999994,700.4056851999994,700.4056851999994,695.0120155999975,,,,,,,,,,,194,,,,2022-12-23_09h51.49.920,PEmem_Phase-01_encoding,2022.2.4,119.80854594327602,
lists/194/stimuli_position_map_1.csv,4.84131834524669,106.588235294118,196.588235294118,16.5882352941177,high,277.527803230702,maps/google_map_1.png,170.939567936584,objects/1/1_95.jpg,0,indoors,Arm.jpg,0,0,0,0,0,98,98,98,,,,,,,,,,,,,,,,,,,,,700.4056851999994,701.0125043000007,701.3972848999983,701.8972167999964,702.4054315999965,702.9056810999973,703.4055423999962,703.9056719,704.0314517000006,704.0314517000006,705.4223208999974,705.4223208999974,705.4223208999974,l,0.9456579000107013,706.3804347999976,706.3804347999976,706.3804347999976,706.8804776999968,706.8804776999968,706.8804776999968,701.0125043000007,,,,,,,,,,,194,,,,2022-12-23_09h51.49.920,PEmem_Phase-01_encoding,2022.2.4,119.80854594327602,
lists/194/stimuli_position_map_1.csv,4.30675928436205,106.588235294118,196.588235294118,16.5882352941177,high,246.88429018636,maps/google_map_1.png,140.296054892242,objects/1/1_122.jpg,0,outdoors,LeafBlower.jpg,0,0,0,0,0,99,99,99,,,,,,,,,,,,,,,,,,,,,706.8804776999968,707.4916059000025,707.8804746999958,708.3807304000002,708.8723946999962,709.3724891999955,709.8805749000021,710.380599600001,710.506856,710.506856,711.8973939999996,711.8973939999996,711.8973939999996,l,0.1496714000022621,712.0556321999975,712.0556321999975,712.0556321999975,713.0553730999964,713.0553730999964,713.0553730999964,707.4916059000025,,,,,,,,,,,194,,,,2022-12-23_09h51.49.920,PEmem_Phase-01_encoding,2022.2.4,119.80854594327602,
lists/194/stimuli_position_map_1.csv,,,,,,,,,,,,,0,0,0,0,,,,,0,0,0,0,,,,,,,,,,,,,,,,,,,,,,,,,,,,,,,,,,,,,,,713.0553730999964,713.0553730999964,space,6.9040548999983,,,,,,,194,,,,2022-12-23_09h51.49.920,PEmem_Phase-01_encoding,2022.2.4,119.80854594327602,
lists/194/stimuli_position_map_2.csv,3.28721990618805,196.588235294118,286.588235294118,106.588235294118,low,188.43935767957,maps/google_map_1.png,8.14887761454778,objects/1/1_56.jpg,0,indoors,Case_CD.jpg,0,1,1,1,0,0,0,0,,,,,,,,,,,,,,,,,,,,,810.3668246000016,810.9726341999994,811.3563902999958,811.8567392999976,812.3567203999992,812.8566873999953,813.3566226999974,813.8566625999956,813.9769785999961,813.9769785999961,815.3733202000003,815.3733202000003,815.3733202000003,l,0.9892633000054047,816.3732707999952,816.3732707999952,816.3732707999952,816.8740851999974,816.8740851999974,816.8740851999974,,,,,,751.3147812000025,751.3147812000025,space,59.02780480001093,,,194,,,,2022-12-23_09h51.49.920,PEmem_Phase-01_encoding,2022.2.4,119.80854594327602,
lists/194/stimuli_position_map_2.csv,3.47036146784536,196.588235294118,286.588235294118,106.588235294118,low,198.937918538906,maps/google_map_1.png,2.34968324478857,objects/1/1_59.jpg,1,outdoors,Hedgehog.jpg,0,1,1,1,0,1,1,1,,,,,,,,,,,,,,,,,,,,,816.8740851999974,817.4807895999984,817.8733821999995,818.3731302000015,818.8734353999971,819.3734122999958,819.8735203999968,820.3733490000013,820.5043165000025,820.5043165000025,821.8902220999953,821.8902220999953,821.8902220999953,a,0.048134200005733874,821.9483518999987,821.9483518999987,821.9483518999987,822.4482009999992,822.4482009999992,822.4482009999992,817.4807895999984,,,,,,,,,,,194,,,,2022-12-23_09h51.49.920,PEmem_Phase-01_encoding,2022.2.4,119.80854594327602,
lists/194/stimuli_position_map_2.csv,3.40763837126424,196.588235294118,286.588235294118,106.588235294118,low,195.342327015147,maps/google_map_1.png,1.24590827897024,objects/1/1_74.jpg,0,outdoors,Glove_Baseball.jpg,0,1,1,1,0,2,2,2,,,,,,,,,,,,,,,,,,,,,822.4482009999992,823.0607667000004,823.4482388999968,823.9481926000008,824.4482958000008,824.9482610999985,825.4483268999975,825.948300899996,826.0718917999984,826.0718917999984,827.4652569999962,827.4652569999962,827.4652569999962,a,0.21807350000017323,827.6993502999976,827.6993502999976,827.6993502999976,828.1984117999964,828.1984117999964,828.1984117999964,823.0607667000004,,,,,,,,,,,194,,,,2022-12-23_09h51.49.920,PEmem_Phase-01_encoding,2022.2.4,119.80854594327602,
lists/194/stimuli_position_map_2.csv,1.438360410831,196.588235294118,16.5882352941177,260.44537815126,singletons,82.453781512605,maps/google_map_1.png,None,objects/1/1_38.jpg,0,outdoors,Statue_Man.jpg,0,1,1,1,0,3,3,3,,,,,,,,,,,,,,,,,,,,,828.1984117999964,828.8052033999993,829.1984569999986,829.698353300002,830.1992326999971,830.698455699996,831.1984231999959,831.6983858000021,831.8274113000007,831.8274113000007,833.215168499999,833.215168499999,833.215168499999,l,0.8233124000034877,834.0484488000002,834.0484488000002,834.0484488000002,834.5483358999991,834.5483358999991,834.5483358999991,828.8052033999993,,,,,,,,,,,194,,,,2022-12-23_09h51.49.920,PEmem_Phase-01_encoding,2022.2.4,119.80854594327602,
lists/194/stimuli_position_map_2.csv,3.52047824834107,196.588235294118,286.588235294118,106.588235294118,low,201.810855000443,maps/google_map_1.png,5.22261970632586,objects/1/1_59.jpg,1,outdoors,Hedgehog.jpg,0,1,1,1,0,4,4,4,,,,,,,,,,,,,,,,,,,,,834.5483358999991,835.1589939999976,835.5485026999959,836.0484862000012,836.5484800999984,837.048572599997,837.5485262000002,838.0485278999986,838.1803842000008,838.1803842000008,839.5650609000004,839.5650609000004,839.5650609000004,a,0.014337300002807751,839.5902837999965,839.5902837999965,839.5902837999965,840.0901623999962,840.0901623999962,840.0901623999962,835.1589939999976,,,,,,,,,,,194,,,,2022-12-23_09h51.49.920,PEmem_Phase-01_encoding,2022.2.4,119.80854594327602,
lists/194/stimuli_position_map_2.csv,3.04126577847708,196.588235294118,286.588235294118,106.588235294118,low,174.340076473209,maps/google_map_1.png,22.248158820909,objects/1/1_42.jpg,0,outdoors,Ambulance.jpg,0,1,1,1,0,5,5,5,,,,,,,,,,,,,,,,,,,,,840.0901623999962,840.6970078000013,841.0902507999999,841.5904470000023,842.0904422999956,842.5903971000007,843.090237999997,843.5904852000021,843.7186327999952,843.7186327999952,845.1069287999999,845.1069287999999,845.1069287999999,a,0.30901160000939853,845.4319869999963,845.4319869999963,845.4319869999963,845.9319328999991,845.9319328999991,845.9319328999991,840.6970078000013,,,,,,,,,,,194,,,,2022-12-23_09h51.49.920,PEmem_Phase-01_encoding,2022.2.4,119.80854594327602,
lists/194/stimuli_position_map_2.csv,3.28163430657227,196.588235294118,286.588235294118,106.588235294118,low,188.119164071022,maps/google_map_1.png,8.46907122309588,objects/2/2_76.jpg,1,indoors,Dart.jpg,0,1,1,1,0,6,6,6,,,,,,,,,,,,,,,,,,,,,845.9319328999991,846.5439755999978,846.9318515999985,847.431882799996,847.932138600001,848.431786299996,848.9320535000006,849.4320908000009,849.5589241999987,849.5589241999987,850.9484918000016,850.9484918000016,850.9484918000016,a,1.5264599000074668,852.4818535000013,852.4818535000013,852.4818535000013,852.9819437999977,852.9819437999977,852.9819437999977,846.5439755999978,,,,,,,,,,,194,,,,2022-12-23_09h51.49.920,PEmem_Phase-01_encoding,2022.2.4,119.80854594327602,
lists/194/stimuli_position_map_2.csv,4.09515009286932,196.588235294118,286.588235294118,106.588235294118,low,234.75382697977,maps/google_map_1.png,38.1655916856523,objects/2/2_76.jpg,1,indoors,Dart.jpg,0,1,1,1,0,7,7,7,,,,,,,,,,,,,,,,,,,,,852.9819437999977,853.5922461000009,853.9820557999992,854.4819099000015,854.9821871000022,855.4821420000007,855.9821898000009,856.4820182999974,856.6087654000003,856.6087654000003,857.9987261999995,857.9987261999995,857.9987261999995,a,0.39779440000711475,858.4070027999987,858.4070027999987,858.4070027999987,858.9069531999994,858.9069531999994,858.9069531999994,853.5922461000009,,,,,,,,,,,194,,,,2022-12-23_09h51.49.920,PEmem_Phase-01_encoding,2022.2.4,119.80854594327602,
lists/194/stimuli_position_map_2.csv,3.54418640126257,196.588235294118,286.588235294118,106.588235294118,low,203.169921091485,maps/google_map_1.png,6.58168579736732,objects/2/2_76.jpg,1,indoors,Dart.jpg,0,1,1,1,0,8,8,8,,,,,,,,,,,,,,,,,,,,,858.9069531999994,859.5168835000004,859.8987110000016,860.3989175999959,860.907209500001,861.4075077000016,861.8984947999998,862.3989153000002,862.5338560000018,862.5338560000018,863.9236137999978,863.9236137999978,863.9236137999978,a,0.32943800000066403,864.2655318999969,864.2655318999969,864.2655318999969,864.7658956000014,864.7658956000014,864.7658956000014,859.5168835000004,,,,,,,,,,,194,,,,2022-12-23_09h51.49.920,PEmem_Phase-01_encoding,2022.2.4,119.80854594327602,
lists/194/stimuli_position_map_2.csv,3.78808632752636,196.588235294118,286.588235294118,106.588235294118,low,217.151445526989,maps/google_map_1.png,20.5632102328712,objects/1/1_141.jpg,0,outdoors,Owl.jpg,0,1,1,1,0,9,9,9,,,,,,,,,,,,,,,,,,,,,864.7658956000014,865.3741135999953,865.7570793999985,866.2571659000023,866.757199300002,867.2571085999953,867.765367699998,868.2655632000024,868.3912966999997,868.3912966999997,869.782045699998,869.782045699998,869.782045699998,a,0.5789968000099179,870.3748999000018,870.3748999000018,870.3748999000018,,,,865.3741135999953,,,,,,,,,,,194,,,,2022-12-23_09h51.49.920,PEmem_Phase-01_encoding,2022.2.4,119.80854594327602,
lists/194/stimuli_position_map_2.csv,2.9548125179688,196.588235294118,286.588235294118,106.588235294118,low,169.384157081014,maps/google_map_1.png,27.2040782131035,objects/2/2_91.jpg,1,indoors,TortillaChip.jpg,0,1,1,1,0,10,10,10,,,,,,,,,,,,,,,,,,,,,870.881996600001,871.4922903999977,871.8738300999976,872.3737189000021,872.8737302000009,873.3738517999955,873.8737648999959,874.3739414000011,874.5019918999969,874.5019918999969,875.8904952000012,875.8904952000012,875.8904952000012,l,0.2957623000111198,876.1988943999968,876.1988943999968,876.1988943999968,876.6989983000021,876.6989983000021,876.6989983000021,,,,,,,,,,,,194,,,,2022-12-23_09h51.49.920,PEmem_Phase-01_encoding,2022.2.4,119.80854594327602,
lists/194/stimuli_position_map_2.csv,3.09746433005372,196.588235294118,286.588235294118,106.588235294118,low,177.561649493525,maps/google_map_1.png,19.0265858005922,objects/2/2_91.jpg,1,indoors,TortillaChip.jpg,0,1,1,1,0,11,11,11,,,,,,,,,,,,,,,,,,,,,876.6989983000021,877.306876900002,877.6989956999969,878.1989535999965,878.6990358999974,879.1988226999965,879.6989361000014,880.1990423000025,880.3240948000021,880.3240948000021,881.7155822999994,881.7155822999994,881.7155822999994,l,0.18132320000586333,881.9072501999981,881.9072501999981,881.9072501999981,882.4072679999954,882.4072679999954,882.4072679999954,877.306876900002,,,,,,,,,,,194,,,,2022-12-23_09h51.49.920,PEmem_Phase-01_encoding,2022.2.4,119.80854594327602,
lists/194/stimuli_position_map_2.csv,3.50052010209001,196.588235294118,286.588235294118,106.588235294118,low,200.66675744465,maps/google_map_1.png,4.07852215053268,objects/2/2_75.jpg,1,indoors,TeethMould.jpg,0,1,1,1,0,12,12,12,,,,,,,,,,,,,,,,,,,,,882.4072679999954,883.0160602999968,883.4073554999995,883.907271899996,884.4072081999984,884.9072698000018,885.4072975999952,885.9073291999957,886.0388305000015,886.0388305000015,887.4239706000008,887.4239706000008,887.4239706000008,l,0.14956930000334978,887.5824080999955,887.5824080999955,887.5824080999955,888.0824764999998,888.0824764999998,888.0824764999998,883.0160602999968,,,,,,,,,,,194,,,,2022-12-23_09h51.49.920,PEmem_Phase-01_encoding,2022.2.4,119.80854594327602,
lists/194/stimuli_position_map_2.csv,0.806842203548086,196.588235294118,16.5882352941177,230.27731092437,singletons,46.2521008403361,maps/google_map_1.png,None,objects/1/1_20.jpg,0,indoors,Clock_Wall.jpg,0,1,1,1,0,13,13,13,,,,,,,,,,,,,,,,,,,,,888.0824764999998,888.6898373000004,889.0824016999977,889.5824919000006,890.0825830999966,890.5825394999993,891.0824711000023,891.5825871999987,891.7101872999992,891.7101872999992,893.0990812000018,893.0990812000018,893.0990812000018,l,0.3146236000029603,893.4239653999975,893.4239653999975,893.4239653999975,893.9270581000019,893.9270581000019,893.9270581000019,888.6898373000004,,,,,,,,,,,194,,,,2022-12-23_09h51.49.920,PEmem_Phase-01_encoding,2022.2.4,119.80854594327602,
lists/194/stimuli_position_map_2.csv,2.91404956251492,196.588235294118,286.588235294118,106.588235294118,low,167.047427150537,maps/google_map_1.png,29.5408081435807,objects/2/2_76.jpg,1,indoors,Dart.jpg,0,1,1,1,0,14,14,14,,,,,,,,,,,,,,,,,,,,,893.9270581000019,894.5433234000011,894.9242009000009,895.4241684000008,895.9242490999968,896.4240596000018,896.9157818999956,897.4158005999998,897.5460883999986,897.5460883999986,898.9405751000013,898.9405751000013,898.9405751000013,l,0.009373000008054078,898.9656529999993,898.9656529999993,898.9656529999993,899.4658032000007,899.4658032000007,899.4658032000007,,,,,,,,,,,,194,,,,2022-12-23_09h51.49.920,PEmem_Phase-01_encoding,2022.2.4,119.80854594327602,
lists/194/stimuli_position_map_2.csv,3.57266945603354,196.588235294118,286.588235294118,106.588235294118,low,204.802707670712,maps/google_map_1.png,8.21447237659482,objects/2/2_91.jpg,1,indoors,TortillaChip.jpg,0,1,1,1,0,15,15,15,,,,,,,,,,,,,,,,,,,,,899.4658032000007,900.0761927999993,900.4573381000009,900.9572040999992,901.4570977999974,901.9573135999963,902.4573543000006,902.9575380000024,903.0970833999963,903.0970833999963,904.4825693000021,904.4825693000021,904.4825693000021,l,0.1587926000065636,904.657558400002,904.657558400002,904.657558400002,905.1574417000011,905.1574417000011,905.1574417000011,900.0761927999993,,,,,,,,,,,194,,,,2022-12-23_09h51.49.920,PEmem_Phase-01_encoding,2022.2.4,119.80854594327602,
lists/194/stimuli_position_map_2.csv,3.47720017782696,196.588235294118,286.588235294118,106.588235294118,low,199.329946499635,maps/google_map_1.png,2.74171120551691,objects/1/1_59.jpg,1,outdoors,Hedgehog.jpg,0,1,1,1,0,16,16,16,,,,,,,,,,,,,,,,,,,,,905.1574417000011,905.7683067999969,906.1573184000008,906.6574925000023,907.1574369000009,907.6574261999995,908.1575153000013,908.6574290999997,908.7835238999978,908.7835238999978,910.1741024000003,910.1741024000003,910.1741024000003,a,0.19419890000426676,910.3835545999973,910.3835545999973,910.3835545999973,910.8823825,910.8823825,910.8823825,905.7683067999969,,,,,,,,,,,194,,,,2022-12-23_09h51.49.920,PEmem_Phase-01_encoding,2022.2.4,119.80854594327602,
lists/194/stimuli_position_map_2.csv,3.1790035196177,196.588235294118,286.588235294118,106.588235294118,low,182.235870551333,maps/google_map_1.png,14.3523647427846,objects/1/1_24.jpg,0,outdoors,Igloo.jpg,0,1,1,1,0,17,17,17,,,,,,,,,,,,,,,,,,,,,910.8823825,911.4975627999956,911.8825967000012,912.3826473000008,912.8824810000006,913.3826665000015,913.8824244999996,914.3825603000005,914.5099475000025,914.5099475000025,915.8993778000004,915.8993778000004,915.8993778000004,a,0.21115180000197142,916.1243290999992,916.1243290999992,916.1243290999992,916.6242551999967,916.6242551999967,916.6242551999967,911.4975627999956,,,,,,,,,,,194,,,,2022-12-23_09h51.49.920,PEmem_Phase-01_encoding,2022.2.4,119.80854594327602,
lists/194/stimuli_position_map_2.csv,3.24402690596122,196.588235294118,286.588235294118,106.588235294118,low,185.963325819433,maps/google_map_1.png,10.6249094746845,objects/2/2_112.jpg,1,outdoors,Toy_GasPump.jpg,0,1,1,1,0,18,18,18,,,,,,,,,,,,,,,,,,,,,916.6242551999967,917.2386714999957,917.6240746999974,918.1242783999987,918.615985299999,919.1163037000006,919.6160925000004,920.1159955999974,920.2566378999982,920.2566378999982,921.6409585000001,921.6409585000001,921.6409585000001,a,0.24717080000118585,921.8993706999972,921.8993706999972,921.8993706999972,922.3992608999979,922.3992608999979,922.3992608999979,917.2386714999957,,,,,,,,,,,194,,,,2022-12-23_09h51.49.920,PEmem_Phase-01_encoding,2022.2.4,119.80854594327602,
lists/194/stimuli_position_map_2.csv,3.22001803835128,196.588235294118,286.588235294118,106.588235294118,low,184.587021306761,maps/google_map_1.png,12.0012139873563,objects/1/1_59.jpg,1,outdoors,Hedgehog.jpg,0,1,1,1,0,19,19,19,,,,,,,,,,,,,,,,,,,,,922.3992608999979,923.0175869000013,923.3992629999993,923.8993841999982,924.3993683000008,924.8996014000004,925.3994596999983,925.8994544000016,926.0266295999972,926.0266295999972,927.4161115000024,927.4161115000024,927.4161115000024,a,0.07047410000814125,927.499562799996,927.499562799996,927.499562799996,928.0003547000015,928.0003547000015,928.0003547000015,923.0175869000013,,,,,,,,,,,194,,,,2022-12-23_09h51.49.920,PEmem_Phase-01_encoding,2022.2.4,119.80854594327602,
lists/194/stimuli_position_map_2.csv,3.04737861050067,196.588235294118,286.588235294118,106.588235294118,low,174.69049359558,maps/google_map_1.png,21.8977416985379,objects/1/1_104.jpg,0,indoors,Desk_Office.jpg,0,1,1,1,0,20,20,20,,,,,,,,,,,,,,,,,,,,,928.0003547000015,928.6071284999998,928.9993165999986,929.4992410999985,929.9994890000016,930.4993395999991,930.9995166000008,931.4994892999966,931.618389999996,931.618389999996,933.0160290999993,933.0160290999993,933.0160290999993,l,0.18047990000195568,933.2079366999969,933.2079366999969,933.2079366999969,933.7079247000001,933.7079247000001,933.7079247000001,928.6071284999998,,,,,,,,,,,194,,,,2022-12-23_09h51.49.920,PEmem_Phase-01_encoding,2022.2.4,119.80854594327602,
lists/194/stimuli_position_map_2.csv,3.60031544478509,196.588235294118,286.588235294118,106.588235294118,low,206.387509573668,maps/google_map_1.png,9.79927427954997,objects/1/1_71.jpg,0,outdoors,PoliceTape.jpg,0,1,1,1,0,21,21,21,,,,,,,,,,,,,,,,,,,,,933.7079247000001,934.3167973000018,934.7075680999988,935.2078103000022,935.7079223999972,936.2076499999966,936.7079461999965,,937.3273503999953,937.3273503999953,938.7161379999961,938.7161379999961,938.7161379999961,a,0.15642850000585895,938.8829294000025,938.8829294000025,938.8829294000025,939.3829336999988,939.3829336999988,939.3829336999988,934.3167973000018,,,,,,,,,,,194,,,,2022-12-23_09h51.49.920,PEmem_Phase-01_encoding,2022.2.4,119.80854594327602,
lists/194/stimuli_position_map_2.csv,3.55281926406743,196.588235294118,286.588235294118,106.588235294118,low,203.664798577114,maps/google_map_1.png,7.07656328299643,objects/2/2_75.jpg,1,indoors,TeethMould.jpg,0,1,1,1,0,22,22,22,,,,,,,,,,,,,,,,,,,,,939.3829336999988,939.9930479999966,940.3828730999958,940.8828713999974,941.382824399996,941.8829876000018,942.3828566000011,942.8830716000011,943.0100770999998,943.0100770999998,944.3997122000001,944.3997122000001,944.3997122000001,l,0.6670903000049293,945.0828735999967,945.0828735999967,945.0828735999967,945.5830391999989,945.5830391999989,945.5830391999989,939.9930479999966,,,,,,,,,,,194,,,,2022-12-23_09h51.49.920,PEmem_Phase-01_encoding,2022.2.4,119.80854594327602,
lists/194/stimuli_position_map_2.csv,3.70766920794333,196.588235294118,286.588235294118,106.588235294118,low,212.541546952165,maps/google_map_1.png,15.9533116580476,objects/1/1_15.jpg,0,indoors,Toy_Lion.jpg,0,1,1,1,0,23,23,23,,,,,,,,,,,,,,,,,,,,,945.5830391999989,946.1898815000022,946.5827758000014,947.0829841000013,947.5828311000005,948.0827444999959,948.5829793000012,949.0830526999998,949.2090207000001,949.2090207000001,950.5996672999972,950.5996672999972,950.5996672999972,l,0.18511520000174642,950.7994491999998,950.7994491999998,950.7994491999998,951.2996774999992,951.2996774999992,951.2996774999992,946.1898815000022,,,,,,,,,,,194,,,,2022-12-23_09h51.49.920,PEmem_Phase-01_encoding,2022.2.4,119.80854594327602,
lists/194/stimuli_position_map_2.csv,2.70139682539683,196.588235294118,106.588235294118,221.226890756303,singletons,154.857142857143,maps/google_map_1.png,None,objects/1/1_18.jpg,0,indoors,ChessPiece_Knight.jpg,0,1,1,1,0,24,24,24,,,,,,,,,,,,,,,,,,,,,951.2996774999992,951.9061146000022,952.2914017000003,952.7912582999998,953.2912987999953,953.791318399999,954.2914023999983,954.7911307999966,954.9199593000012,954.9199593000012,956.3162092999992,956.3162092999992,956.3162092999992,l,0.46452380000118865,956.7914910999971,956.7914910999971,956.7914910999971,957.2914596999981,957.2914596999981,957.2914596999981,951.9061146000022,,,,,,,,,,,194,,,,2022-12-23_09h51.49.920,PEmem_Phase-01_encoding,2022.2.4,119.80854594327602,
lists/194/stimuli_position_map_2.csv,5.6893367560835,196.588235294118,286.588235294118,106.588235294118,medium,326.140323597143,maps/google_map_1.png,129.552088303026,objects/1/1_32.jpg,0,indoors,Skirt_Long.jpg,0,1,1,1,0,25,25,25,,,,,,,,,,,,,,,,,,,,,957.2914596999981,957.8979218000022,958.2829960000017,958.782875500001,959.283125599999,959.7831387999977,960.2913836000007,960.7914623999968,960.9181954000014,960.9181954000014,962.3081038999953,962.3081038999953,962.3081038999953,l,0.2026522000087425,962.5247428000002,962.5247428000002,962.5247428000002,963.0245452999952,963.0245452999952,963.0245452999952,957.8979218000022,,,,,,,,,,,194,,,,2022-12-23_09h51.49.920,PEmem_Phase-01_encoding,2022.2.4,119.80854594327602,
lists/194/stimuli_position_map_2.csv,1.75411951447246,196.588235294118,16.5882352941177,230.27731092437,singletons,100.554621848739,maps/google_map_1.png,None,objects/1/1_92.jpg,0,outdoors,Iguana.jpg,0,1,1,1,0,26,26,26,,,,,,,,,,,,,,,,,,,,,963.0245452999952,963.6367698999966,964.0246651999987,964.524674399996,965.0247783000013,965.5247597999987,966.0163113000017,966.5163725999955,966.6504497999995,966.6504497999995,968.0331799999985,968.0331799999985,968.0331799999985,l,0.08811830000195187,968.133224899997,968.133224899997,968.133224899997,968.6332053000006,968.6332053000006,968.6332053000006,963.6367698999966,,,,,,,,,,,194,,,,2022-12-23_09h51.49.920,PEmem_Phase-01_encoding,2022.2.4,119.80854594327602,
lists/194/stimuli_position_map_2.csv,5.40287027476807,196.588235294118,286.588235294118,106.588235294118,medium,309.718678171418,maps/google_map_1.png,113.1304428773,objects/1/1_132.jpg,0,indoors,PanCooking.jpg,0,1,1,1,0,27,27,27,,,,,,,,,,,,,,,,,,,,,968.6332053000006,969.2474858999994,969.6331721000024,970.1332198000018,970.6332479999983,971.1332889999976,971.6332628999953,972.1331582999992,972.2613528000002,972.2613528000002,973.6497297999958,973.6497297999958,973.6497297999958,l,0.2455039000051329,973.9082837999958,973.9082837999958,973.9082837999958,974.4081724999996,974.4081724999996,974.4081724999996,969.2474858999994,,,,,,,,,,,194,,,,2022-12-23_09h51.49.920,PEmem_Phase-01_encoding,2022.2.4,119.80854594327602,
lists/194/stimuli_position_map_2.csv,3.42365287774157,196.588235294118,286.588235294118,106.588235294118,low,196.26035604888,maps/google_map_1.png,0.327879245237778,objects/1/1_62.jpg,0,indoors,RecorderCassette.jpg,0,1,1,1,0,28,28,28,,,,,,,,,,,,,,,,,,,,,974.4081724999996,975.0152681999971,975.3998365000007,975.899688999998,976.399915199996,976.8999282000004,977.3997619000002,977.8999732000011,978.0326929000003,978.0326929000003,979.4246988000014,979.4246988000014,979.4246988000014,l,0.449335000004794,979.883332999998,979.883332999998,979.883332999998,980.3833234999984,980.3833234999984,980.3833234999984,975.0152681999971,,,,,,,,,,,194,,,,2022-12-23_09h51.49.920,PEmem_Phase-01_encoding,2022.2.4,119.80854594327602,
lists/194/stimuli_position_map_2.csv,4.3118235712171,196.588235294118,286.588235294118,106.588235294118,medium,247.17459962391,maps/google_map_1.png,50.5863643297926,objects/1/1_143.jpg,0,indoors,Stamp.jpg,0,1,1,1,0,29,29,29,,,,,,,,,,,,,,,,,,,,,980.3833234999984,980.9997511999973,981.3746178000001,981.8749645999997,982.3747785000014,982.8748877999969,983.3750023999964,983.8749582000019,984.0093468999985,984.0093468999985,985.3997518999968,985.3997518999968,985.3997518999968,l,0.8497131000040099,986.2584050000005,986.2584050000005,986.2584050000005,986.7582915999956,986.7582915999956,986.7582915999956,980.9997511999973,,,,,,,,,,,194,,,,2022-12-23_09h51.49.920,PEmem_Phase-01_encoding,2022.2.4,119.80854594327602,
lists/194/stimuli_position_map_2.csv,2.33301120448179,196.588235294118,106.588235294118,25.1344537815126,singletons,133.739495798319,maps/google_map_1.png,None,objects/1/1_139.jpg,0,outdoors,Boot_Rain.jpg,0,1,1,1,0,30,30,30,,,,,,,,,,,,,,,,,,,,,986.7582915999956,987.368335799998,987.7499918999965,988.2501016000024,988.7500901999956,989.2500822000002,989.7498894000018,990.2505371000007,990.3853930999976,990.3853930999976,991.7750564000016,991.7750564000016,991.7750564000016,l,0.9103057000029366,992.6999911999956,992.6999911999956,992.6999911999956,993.200096200002,993.200096200002,993.200096200002,987.368335799998,,,,,,,,,,,194,,,,2022-12-23_09h51.49.920,PEmem_Phase-01_encoding,2022.2.4,119.80854594327602,
lists/194/stimuli_position_map_2.csv,4.12313620195979,196.588235294118,286.588235294118,106.588235294118,low,236.358126226994,maps/google_map_1.png,39.7698909328765,objects/2/2_76.jpg,1,indoors,Dart.jpg,0,1,1,1,0,31,31,31,,,,,,,,,,,,,,,,,,,,,993.200096200002,993.8117638999975,994.2000551999954,994.6999251000016,995.2000788000005,995.7001674999992,996.2000958999997,996.7001326999962,996.8212406999955,996.8212406999955,998.2166739000022,998.2166739000022,998.2166739000022,l,0.06789450000360375,998.3002052000011,998.3002052000011,998.3002052000011,998.8000014999998,998.8000014999998,998.8000014999998,993.8117638999975,,,,,,,,,,,194,,,,2022-12-23_09h51.49.920,PEmem_Phase-01_encoding,2022.2.4,119.80854594327602,
lists/194/stimuli_position_map_2.csv,3.55944761140128,196.588235294118,286.588235294118,106.588235294118,low,204.044767532557,maps/google_map_1.png,7.45653223843977,objects/1/1_59.jpg,1,outdoors,Hedgehog.jpg,0,1,1,1,0,32,32,32,,,,,,,,,,,,,,,,,,,,,998.8000014999998,999.4113378999973,999.8001965000003,1000.2998632000017,1000.7998633000025,1001.2999868999977,1001.8001271999965,1002.3001656999986,1002.424913099996,1002.424913099996,1003.8167506999962,1003.8167506999962,1003.8167506999962,a,0.10584970000491012,1003.9335514999984,1003.9335514999984,1003.9335514999984,1004.4333103999961,1004.4333103999961,1004.4333103999961,999.4113378999973,,,,,,,,,,,194,,,,2022-12-23_09h51.49.920,PEmem_Phase-01_encoding,2022.2.4,119.80854594327602,
lists/194/stimuli_position_map_2.csv,3.54180922509586,196.588235294118,286.588235294118,106.588235294118,low,203.033649846259,maps/google_map_1.png,6.44541455214179,objects/1/1_136.jpg,0,outdoors,Bus_School.jpg,0,1,1,1,0,33,33,33,,,,,,,,,,,,,,,,,,,,,1004.4333103999961,1005.0444983999987,1005.433503399996,1005.9335188999976,1006.4336707999973,1006.9333698999981,1007.4335217999978,1007.9336819000018,1008.0585930000016,1008.0585930000016,1009.4502032999953,1009.4502032999953,1009.4502032999953,a,0.2984776000084821,1009.7586402000015,1009.7586402000015,1009.7586402000015,1010.2584876999972,1010.2584876999972,1010.2584876999972,1005.0444983999987,,,,,,,,,,,194,,,,2022-12-23_09h51.49.920,PEmem_Phase-01_encoding,2022.2.4,119.80854594327602,
