radians,pos_1,pos_2,type,degrees,map_file,PE,object,isFiller,outdoors_response,stimulus,old_new,trials.thisRepN,trials.thisTrialN,trials.thisN,trials.thisIndex,location_loop.thisRepN,location_loop.thisTrialN,location_loop.thisN,location_loop.thisIndex,instructions_text.started,key_resp.started,key_resp.keys,key_resp.rt,Instructions_2_text.started,instr_2_resp.started,instr_2_resp.keys,instr_2_resp.rt,Instructions_3_text.started,Instr_3_resp.started,Instr_3_resp.keys,Instr_3_resp.rt,Instr_4_text.started,Instr_4_resp.started,Instr_4_resp.keys,Instr_4_resp.rt,text_4.started,image_feedb.started,recog_resp.started,recog_prompt.started,recog_option_left.started,recog_option_right.started,recog_resp.keys,recog_resp.rt,image_feedb_2.started,conf_resp.started,conf_prompt.started,conf_1.started,conf_2.started,conf_3.started,conf_4.started,conf_5.started,conf_6.started,conf_resp.keys,conf_resp.rt,text_4.stopped,image_2.started,predict_prompt.started,line.started,response,key_resp_2.keys,key_resp_2.rt,instructions_text_2.started,key_resp_3.started,key_resp_3.keys,key_resp_3.rt,participant,date,expName,psychopyVersion,frameRate,
,,,,,,,,,,,,,,,,,,,,10.116133375000004,10.116133375000004,space,39.63164070799996,,,,,,,,,,,,,,,,,,,,,,,,,,,,,,,,,,,,,,,,,,,991,2022-11-25_14h45.18.478,test3,2022.2.4,59.70967650599897,
,,,,,,,,,,,,,,,,,,,,,,,,49.814747958,49.814747958,space,11.252610333999996,,,,,,,,,,,,,,,,,,,,,,,,,,,,,,,,,,,,,,,991,2022-11-25_14h45.18.478,test3,2022.2.4,59.70967650599897,
,,,,,,,,,,,,,,,,,,,,,,,,,,,,61.099920957999984,61.099920957999984,space,13.017774999999915,,,,,,,,,,,,,,,,,,,,,,,,,,,,,,,,,,,991,2022-11-25_14h45.18.478,test3,2022.2.4,59.70967650599897,
,,,,,,,,,,,,,,,,,,,,,,,,,,,,,,,,74.14952104199995,74.14952104199995,space,33.00111974999993,,,,,,,,,,,,,,,,,,,,,,,,,,,,,,,991,2022-11-25_14h45.18.478,test3,2022.2.4,59.70967650599897,
None,None,None,None,None,maps/google_map_1.png,None,objects/2/2_96.jpg,None,outdoors,Sphinx.jpg,new,0,0,0,0,,,,,,,,,,,,,,,,,,,,,116.80010774999994,107.4882235,107.4882235,107.4882235,107.4882235,107.4882235,right,3.264808291999998,111.08864391700001,111.08864391700001,111.08864391700001,111.08864391700001,111.08864391700001,111.08864391700001,111.08864391700001,111.08864391700001,111.08864391700001,4,5.687054083000021,117.05037408299995,,,,,,,,,,,991,2022-11-25_14h45.18.478,test3,2022.2.4,59.70967650599897,
4.70120448179272,238.319327731092,230.27731092437,singletons,269.495798319328,maps/google_map_1.png,None,objects/1/1_71.jpg,0.0,outdoors,TotemPole.jpg,old,0,1,1,1,0,0,0,0,,,,,,,,,,,,,,,,,124.88394337499994,117.30094350000002,117.30094350000002,117.30094350000002,117.30094350000002,117.30094350000002,right,3.0924134589999994,120.68655845799992,120.68655845799992,120.68655845799992,120.68655845799992,120.68655845799992,120.68655845799992,120.68655845799992,120.68655845799992,120.68655845799992,6,4.176423875000069,125.40267216699999,125.40267216699999,125.40267216699999,125.40267216699999,64.0,['return'],[15.448213333999888],,,,,991,2022-11-25_14h45.18.478,test3,2022.2.4,59.70967650599897,
4.70120448179272,238.319327731092,230.27731092437,singletons,269.495798319328,maps/google_map_1.png,None,objects/1/1_71.jpg,0.0,outdoors,TotemPole.jpg,old,0,1,1,1,,,,,,,,,,,,,,,,,,,,,,,,,,,,,,,,,,,,,,,,,,,,,,,,,,,991,2022-11-25_14h45.18.478,test3,2022.2.4,59.70967650599897,
None,None,None,None,None,maps/google_map_1.png,None,objects/2/2_81.jpg,None,outdoors,ChariotGold.jpg,new,0,2,2,2,,,,,,,,,,,,,,,,,,,,,148.900836625,141.101291167,141.101291167,141.101291167,141.101291167,141.101291167,left,2.9668440829999554,144.37063783299993,144.37063783299993,144.37063783299993,144.37063783299993,144.37063783299993,144.37063783299993,144.37063783299993,144.37063783299993,144.37063783299993,2,4.501195333000055,149.15079320799998,,,,,,,,,,,991,2022-11-25_14h45.18.478,test3,2022.2.4,59.70967650599897,
None,None,None,None,None,maps/google_map_1.png,None,objects/2/2_107.jpg,None,indoors,Plunger.jpg,new,0,3,3,3,,,,,,,,,,,,,,,,,,,,,152.550928333,149.40071649999993,149.40071649999993,149.40071649999993,149.40071649999993,149.40071649999993,left,1.9240039579999575,151.61972508299993,151.61972508299993,151.61972508299993,151.61972508299993,151.61972508299993,151.61972508299993,151.61972508299993,151.61972508299993,151.61972508299993,2,0.906768833000001,152.801239958,,,,,,,,,,,991,2022-11-25_14h45.18.478,test3,2022.2.4,59.70967650599897,
2.08531791257233,148.319327731092,328.319327731092,medium,119.540517281217,maps/google_map_1.png,61.2211895501241,objects/1/1_110.jpg,0.0,outdoors,Boot_Rain.jpg,old,0,4,4,4,0,0,0,0,,,,,,,,,,,,,,,,,156.33447429199998,153.05211541699998,153.05211541699998,153.05211541699998,153.05211541699998,153.05211541699998,right,1.1139964170000667,154.45425899999998,154.45425899999998,154.45425899999998,154.45425899999998,154.45425899999998,154.45425899999998,154.45425899999998,154.45425899999998,154.45425899999998,5,1.8604786669999385,156.82154112499995,156.82154112499995,156.82154112499995,156.82154112499995,92.0,['return'],[2.0691808330000185],,,,,991,2022-11-25_14h45.18.478,test3,2022.2.4,59.70967650599897,
2.08531791257233,148.319327731092,328.319327731092,medium,119.540517281217,maps/google_map_1.png,61.2211895501241,objects/1/1_110.jpg,0.0,outdoors,Boot_Rain.jpg,old,0,4,4,4,,,,,,,,,,,,,,,,,,,,,,,,,,,,,,,,,,,,,,,,,,,,,,,,,,,991,2022-11-25_14h45.18.478,test3,2022.2.4,59.70967650599897,
1.0368956364235502,148.319327731092,328.319327731092,low,59.43987724721,maps/google_map_1.png,1.12054951611758,objects/1/1_6.jpg,0.0,indoors,Syrup_Maple.jpg,old,0,5,5,5,0,0,0,0,,,,,,,,,,,,,,,,,163.451489208,159.15173812499995,159.15173812499995,159.15173812499995,159.15173812499995,159.15173812499995,right,2.3445787499999824,161.78777441699992,161.78777441699992,161.78777441699992,161.78777441699992,161.78777441699992,161.78777441699992,161.78777441699992,161.78777441699992,161.78777441699992,6,1.6412829999999303,163.93385491699996,163.93385491699996,163.93385491699996,163.93385491699996,60.5,['return'],[3.9565914579999344],,,,,991,2022-11-25_14h45.18.478,test3,2022.2.4,59.70967650599897,
1.0368956364235502,148.319327731092,328.319327731092,low,59.43987724721,maps/google_map_1.png,1.12054951611758,objects/1/1_6.jpg,0.0,indoors,Syrup_Maple.jpg,old,0,5,5,5,,,,,,,,,,,,,,,,,,,,,,,,,,,,,,,,,,,,,,,,,,,,,,,,,,,991,2022-11-25_14h45.18.478,test3,2022.2.4,59.70967650599897,
6.22893896519562,71.8991596638655,251.89915966386602,low,357.072934310577,maps/google_map_1.png,15.173774646711099,objects/1/1_67.jpg,0.0,indoors,Stamp.jpg,old,0,6,6,6,0,0,0,0,,,,,,,,,,,,,,,,,173.901436375,168.15276279199998,168.15276279199998,168.15276279199998,168.15276279199998,168.15276279199998,right,3.501503458000002,171.954395792,171.954395792,171.954395792,171.954395792,171.954395792,171.954395792,171.954395792,171.954395792,171.954395792,4,1.923937209000087,174.37871099999995,174.37871099999995,174.37871099999995,174.37871099999995,90.5,['return'],[3.3004833329999883],,,,,991,2022-11-25_14h45.18.478,test3,2022.2.4,59.70967650599897,
6.22893896519562,71.8991596638655,251.89915966386602,low,357.072934310577,maps/google_map_1.png,15.173774646711099,objects/1/1_67.jpg,0.0,indoors,Stamp.jpg,old,0,6,6,6,,,,,,,,,,,,,,,,,,,,,,,,,,,,,,,,,,,,,,,,,,,,,,,,,,,991,2022-11-25_14h45.18.478,test3,2022.2.4,59.70967650599897,
None,None,None,None,None,maps/google_map_1.png,None,objects/2/2_112.jpg,None,indoors,HairClipper.jpg,new,0,7,7,7,,,,,,,,,,,,,,,,,,,,,181.06802433300004,177.952394917,177.952394917,177.952394917,177.952394917,177.952394917,left,1.515857500999914,179.770980667,179.770980667,179.770980667,179.770980667,179.770980667,179.770980667,179.770980667,179.770980667,179.770980667,2,1.2679977500000632,181.318954458,,,,,,,,,,,991,2022-11-25_14h45.18.478,test3,2022.2.4,59.70967650599897,
None,None,None,None,None,maps/google_map_1.png,None,objects/2/2_119.jpg,None,outdoors,Statue_Jesus.jpg,new,0,8,8,8,,,,,,,,,,,,,,,,,,,,,184.7182150829999,181.56903604199988,181.56903604199988,181.56903604199988,181.56903604199988,181.56903604199988,left,1.868304041999977,183.73821979199988,183.73821979199988,183.73821979199988,183.73821979199988,183.73821979199988,183.73821979199988,183.73821979199988,183.73821979199988,183.73821979199988,2,0.9564892510001073,184.96831858299993,,,,,,,,,,,991,2022-11-25_14h45.18.478,test3,2022.2.4,59.70967650599897,
1.38722744858078,148.319327731092,328.319327731092,low,79.5225925938027,maps/google_map_1.png,21.203264862710302,objects/1/1_125.jpg,0.0,outdoors,Pickaxe.jpg,old,0,9,9,9,0,0,0,0,,,,,,,,,,,,,,,,,187.50140870799987,185.21916158299996,185.21916158299996,185.21916158299996,185.21916158299996,185.21916158299996,right,1.114045166999972,186.621821833,186.621821833,186.621821833,186.621821833,186.621821833,186.621821833,186.621821833,186.621821833,186.621821833,5,0.8475058329999001,187.981272,187.981272,187.981272,187.981272,25.5,['return'],[3.116276667000079],,,,,991,2022-11-25_14h45.18.478,test3,2022.2.4,59.70967650599897,
1.38722744858078,148.319327731092,328.319327731092,low,79.5225925938027,maps/google_map_1.png,21.203264862710302,objects/1/1_125.jpg,0.0,outdoors,Pickaxe.jpg,old,0,9,9,9,,,,,,,,,,,,,,,,,,,,,,,,,,,,,,,,,,,,,,,,,,,,,,,,,,,991,2022-11-25_14h45.18.478,test3,2022.2.4,59.70967650599897,
5.5995671402764,71.8991596638655,251.89915966386602,low,320.994294665526,maps/google_map_1.png,20.9048649983393,objects/1/1_96.jpg,0.0,outdoors,Backpack_Travel.jpg,old,0,10,10,10,0,0,0,0,,,,,,,,,,,,,,,,,194.71881441699998,191.36932487500007,191.36932487500007,191.36932487500007,191.36932487500007,191.36932487500007,right,1.4091044170000941,193.0730874169999,193.0730874169999,193.0730874169999,193.0730874169999,193.0730874169999,193.0730874169999,193.0730874169999,193.0730874169999,193.0730874169999,6,1.622882167000057,195.1967347499999,195.1967347499999,195.1967347499999,195.1967347499999,37.5,['return'],[2.785831375999919],,,,,991,2022-11-25_14h45.18.478,test3,2022.2.4,59.70967650599897,
5.5995671402764,71.8991596638655,251.89915966386602,low,320.994294665526,maps/google_map_1.png,20.9048649983393,objects/1/1_96.jpg,0.0,outdoors,Backpack_Travel.jpg,old,0,10,10,10,,,,,,,,,,,,,,,,,,,,,,,,,,,,,,,,,,,,,,,,,,,,,,,,,,,991,2022-11-25_14h45.18.478,test3,2022.2.4,59.70967650599897,
None,None,None,None,None,maps/google_map_1.png,None,objects/2/2_50.jpg,None,indoors,DVDPlayer.jpg,new,0,11,11,11,,,,,,,,,,,,,,,,,,,,,203.018538583,198.25310991700007,198.25310991700007,198.25310991700007,198.25310991700007,198.25310991700007,left,2.2989547920000177,200.83878925,200.83878925,200.83878925,200.83878925,200.83878925,200.83878925,200.83878925,200.83878925,200.83878925,3,2.156641041999933,203.268366667,,,,,,,,,,,991,2022-11-25_14h45.18.478,test3,2022.2.4,59.70967650599897,
3.07446109398633,71.8991596638655,251.89915966386602,high,176.24299264889802,maps/google_map_1.png,165.656167014968,objects/1/1_130.jpg,0.0,indoors,PillBottle_Spilled.jpg,old,0,12,12,12,0,0,0,0,,,,,,,,,,,,,,,,,207.10188245799986,203.51881133300003,203.51881133300003,203.51881133300003,203.51881133300003,203.51881133300003,right,2.117163499999947,205.93867679200002,205.93867679200002,205.93867679200002,205.93867679200002,205.93867679200002,205.93867679200002,205.93867679200002,205.93867679200002,205.93867679200002,5,1.1305812920001017,207.58154087499997,207.58154087499997,207.58154087499997,207.58154087499997,100.0,['return'],[1.5535114999998996],,,,,991,2022-11-25_14h45.18.478,test3,2022.2.4,59.70967650599897,
3.07446109398633,71.8991596638655,251.89915966386602,high,176.24299264889802,maps/google_map_1.png,165.656167014968,objects/1/1_130.jpg,0.0,indoors,PillBottle_Spilled.jpg,old,0,12,12,12,,,,,,,,,,,,,,,,,,,,,,,,,,,,,,,,,,,,,,,,,,,,,,,,,,,991,2022-11-25_14h45.18.478,test3,2022.2.4,59.70967650599897,
1.2201187464001002,148.319327731092,328.319327731092,low,69.9431128509614,maps/google_map_1.png,11.623785119869002,objects/1/1_101.jpg,0.0,indoors,Chicken_FriedWing.jpg,old,0,13,13,13,0,0,0,0,,,,,,,,,,,,,,,,,214.7861862499999,209.40507416700007,209.40507416700007,209.40507416700007,209.40507416700007,209.40507416700007,right,3.462983875000077,213.1568272919999,213.1568272919999,213.1568272919999,213.1568272919999,213.1568272919999,213.1568272919999,213.1568272919999,213.1568272919999,213.1568272919999,6,1.6116270419998955,213.1568272919999,215.28246795799987,215.28246795799987,215.28246795799987,81.5,['return'],[1.6122627500000135],,,,,991,2022-11-25_14h45.18.478,test3,2022.2.4,59.70967650599897,
1.2201187464001002,148.319327731092,328.319327731092,low,69.9431128509614,maps/google_map_1.png,11.623785119869002,objects/1/1_101.jpg,0.0,indoors,Chicken_FriedWing.jpg,old,0,13,13,13,,,,,,,,,,,,,,,,,,,,,,,,,,,,,,,,,,,,,,,,,,,,,,,,,,,991,2022-11-25_14h45.18.478,test3,2022.2.4,59.70967650599897,
5.7887617121071395,71.8991596638655,251.89915966386602,low,331.839843369199,maps/google_map_1.png,10.0593162946665,objects/1/1_76.jpg,0.0,indoors,CoffeePot.jpg,old,0,14,14,14,0,0,0,0,,,,,,,,,,,,,,,,,222.30232350000006,217.1696724169999,217.1696724169999,217.1696724169999,217.1696724169999,217.1696724169999,right,1.372380082999939,218.83832258300004,218.83832258300004,218.83832258300004,218.83832258300004,218.83832258300004,218.83832258300004,218.83832258300004,218.83832258300004,218.83832258300004,6,3.433706417000053,222.78257466700006,222.78257466700006,222.78257466700006,222.78257466700006,18.5,['return'],[4.353058251000107],,,,,991,2022-11-25_14h45.18.478,test3,2022.2.4,59.70967650599897,
5.7887617121071395,71.8991596638655,251.89915966386602,low,331.839843369199,maps/google_map_1.png,10.0593162946665,objects/1/1_76.jpg,0.0,indoors,CoffeePot.jpg,old,0,14,14,14,,,,,,,,,,,,,,,,,,,,,,,,,,,,,,,,,,,,,,,,,,,,,,,,,,,991,2022-11-25_14h45.18.478,test3,2022.2.4,59.70967650599897,
5.17959802888803,71.8991596638655,251.89915966386602,low,296.91963222925,maps/google_map_1.png,44.9795274346153,objects/1/1_69.jpg,0.0,indoors,Protractor.jpg,old,0,15,15,15,0,0,0,0,,,,,,,,,,,,,,,,,229.81909445799988,227.40314124999986,227.40314124999986,227.40314124999986,227.40314124999986,227.40314124999986,right,1.2013647499999252,228.90512450000006,228.90512450000006,228.90512450000006,228.90512450000006,228.90512450000006,228.90512450000006,228.90512450000006,228.90512450000006,228.90512450000006,6,0.8910316669999929,230.299163917,230.299163917,230.299163917,230.299163917,262.5,['return'],[2.812364625999976],,,,,991,2022-11-25_14h45.18.478,test3,2022.2.4,59.70967650599897,
5.17959802888803,71.8991596638655,251.89915966386602,low,296.91963222925,maps/google_map_1.png,44.9795274346153,objects/1/1_69.jpg,0.0,indoors,Protractor.jpg,old,0,15,15,15,,,,,,,,,,,,,,,,,,,,,,,,,,,,,,,,,,,,,,,,,,,,,,,,,,,991,2022-11-25_14h45.18.478,test3,2022.2.4,59.70967650599897,
None,None,None,None,None,maps/google_map_1.png,None,objects/2/2_99.jpg,None,indoors,WaterCooler.jpg,new,0,16,16,16,,,,,,,,,,,,,,,,,,,,,237.13554191699995,233.38689312499992,233.38689312499992,233.38689312499992,233.38689312499992,233.38689312499992,left,1.6221561250000605,235.30462375000002,235.30462375000002,235.30462375000002,235.30462375000002,235.30462375000002,235.30462375000002,235.30462375000002,235.30462375000002,235.30462375000002,3,1.8047213749999855,237.38563091700007,,,,,,,,,,,991,2022-11-25_14h45.18.478,test3,2022.2.4,59.70967650599897,
5.41352391396646,71.8991596638655,251.89915966386602,low,310.329396342027,maps/google_map_1.png,31.5697633218389,objects/1/1_129.jpg,0.0,indoors,Shoes_DutchClogs.jpg,old,0,17,17,17,0,0,0,0,,,,,,,,,,,,,,,,,241.03568783299988,237.636528,237.636528,237.636528,237.636528,237.636528,right,1.7805788760000496,239.7050798749999,239.7050798749999,239.7050798749999,239.7050798749999,239.7050798749999,239.7050798749999,239.7050798749999,239.7050798749999,239.7050798749999,6,1.3009772090000524,241.51549833299987,241.51549833299987,241.51549833299987,241.51549833299987,277.5,['return'],[1.4705518750000692],,,,,991,2022-11-25_14h45.18.478,test3,2022.2.4,59.70967650599897,
5.41352391396646,71.8991596638655,251.89915966386602,low,310.329396342027,maps/google_map_1.png,31.5697633218389,objects/1/1_129.jpg,0.0,indoors,Shoes_DutchClogs.jpg,old,0,17,17,17,,,,,,,,,,,,,,,,,,,,,,,,,,,,,,,,,,,,,,,,,,,,,,,,,,,991,2022-11-25_14h45.18.478,test3,2022.2.4,59.70967650599897,
4.2919573003708305,148.319327731092,328.319327731092,high,246.03576881106702,maps/google_map_1.png,172.28355892002602,objects/1/1_64.jpg,0.0,indoors,Socks_Baby.jpg,old,0,18,18,18,0,0,0,0,,,,,,,,,,,,,,,,,246.75281845799987,243.25762366699996,243.25762366699996,243.25762366699996,243.25762366699996,243.25762366699996,right,2.1009325000001127,245.65661862499996,245.65661862499996,245.65661862499996,245.65661862499996,245.65661862499996,245.65661862499996,245.65661862499996,245.65661862499996,245.65661862499996,4,1.0776102500000206,247.23452370799987,247.23452370799987,247.23452370799987,247.23452370799987,18.5,['return'],[5.882925834000048],,,,,991,2022-11-25_14h45.18.478,test3,2022.2.4,59.70967650599897,
4.2919573003708305,148.319327731092,328.319327731092,high,246.03576881106702,maps/google_map_1.png,172.28355892002602,objects/1/1_64.jpg,0.0,indoors,Socks_Baby.jpg,old,0,18,18,18,,,,,,,,,,,,,,,,,,,,,,,,,,,,,,,,,,,,,,,,,,,,,,,,,,,991,2022-11-25_14h45.18.478,test3,2022.2.4,59.70967650599897,
None,None,None,None,None,maps/google_map_1.png,None,objects/2/2_42.jpg,None,outdoors,DivingBoard.jpg,new,0,19,19,19,,,,,,,,,,,,,,,,,,,,,256.91959758300004,253.38696954199986,253.38696954199986,253.38696954199986,253.38696954199986,253.38696954199986,left,1.6859002919999284,255.37147079200008,255.37147079200008,255.37147079200008,255.37147079200008,255.37147079200008,255.37147079200008,255.37147079200008,255.37147079200008,255.37147079200008,1,1.529402541999957,257.169645792,,,,,,,,,,,991,2022-11-25_14h45.18.478,test3,2022.2.4,59.70967650599897,
2.53825212234297,71.8991596638655,251.89915966386602,high,145.50489873303698,maps/google_map_1.png,163.60573906917102,objects/1/1_4.jpg,0.0,outdoors,Jet.jpg,old,0,20,20,20,0,0,0,0,,,,,,,,,,,,,,,,,260.1194741249999,257.42022875,257.42022875,257.42022875,257.42022875,257.42022875,right,1.2357983329999342,258.95664929200007,258.95664929200007,258.95664929200007,258.95664929200007,258.95664929200007,258.95664929200007,258.95664929200007,258.95664929200007,258.95664929200007,5,1.1356855829998267,260.6018819579999,260.6018819579999,260.6018819579999,260.6018819579999,246.0,['return'],[2.5514998339998556],,,,,991,2022-11-25_14h45.18.478,test3,2022.2.4,59.70967650599897,
2.53825212234297,71.8991596638655,251.89915966386602,high,145.50489873303698,maps/google_map_1.png,163.60573906917102,objects/1/1_4.jpg,0.0,outdoors,Jet.jpg,old,0,20,20,20,,,,,,,,,,,,,,,,,,,,,,,,,,,,,,,,,,,,,,,,,,,,,,,,,,,991,2022-11-25_14h45.18.478,test3,2022.2.4,59.70967650599897,
None,None,None,None,None,maps/google_map_1.png,None,objects/2/2_48.jpg,None,outdoors,Archery_ArrowsBows.jpg,new,0,21,21,21,,,,,,,,,,,,,,,,,,,,,267.286868875,263.42072499999995,263.42072499999995,263.42072499999995,263.42072499999995,263.42072499999995,left,1.7800822089999428,265.48885962500003,265.48885962500003,265.48885962500003,265.48885962500003,265.48885962500003,265.48885962500003,265.48885962500003,265.48885962500003,265.48885962500003,2,1.7800969579999446,267.53688629199996,,,,,,,,,,,991,2022-11-25_14h45.18.478,test3,2022.2.4,59.70967650599897,
None,None,None,None,None,maps/google_map_1.png,None,objects/2/2_115.jpg,None,indoors,Maraca.jpg,new,0,22,22,22,,,,,,,,,,,,,,,,,,,,,269.70351541700006,267.78711825000005,267.78711825000005,267.78711825000005,267.78711825000005,267.78711825000005,left,1.2348165009999548,269.3235273749999,269.3235273749999,269.3235273749999,269.3235273749999,269.3235273749999,269.3235273749999,269.3235273749999,269.3235273749999,269.3235273749999,2,0.3606883759999846,269.95356145799997,,,,,,,,,,,991,2022-11-25_14h45.18.478,test3,2022.2.4,59.70967650599897,
None,None,None,None,None,maps/google_map_1.png,None,objects/2/2_39.jpg,None,indoors,Blackboard.jpg,new,0,23,23,23,,,,,,,,,,,,,,,,,,,,,271.987094542,270.20477370799995,270.20477370799995,270.20477370799995,270.20477370799995,270.20477370799995,left,1.037321833999954,271.5400945419999,271.5400945419999,271.5400945419999,271.5400945419999,271.5400945419999,271.5400945419999,271.5400945419999,271.5400945419999,271.5400945419999,2,0.4291937919998645,272.23637566699995,,,,,,,,,,,991,2022-11-25_14h45.18.478,test3,2022.2.4,59.70967650599897,
None,None,None,None,None,maps/google_map_1.png,None,objects/2/2_108.jpg,None,outdoors,BasketballHoop.jpg,new,0,24,24,24,,,,,,,,,,,,,,,,,,,,,274.68676012499986,272.48705075,272.48705075,272.48705075,272.48705075,272.48705075,left,1.1646805419999282,273.94032479199996,273.94032479199996,273.94032479199996,273.94032479199996,273.94032479199996,273.94032479199996,273.94032479199996,273.94032479199996,273.94032479199996,2,0.7279806249999865,274.93611387500005,,,,,,,,,,,991,2022-11-25_14h45.18.478,test3,2022.2.4,59.70967650599897,
None,None,None,None,None,maps/google_map_1.png,None,objects/2/2_93.jpg,None,indoors,Garbage_Can.jpg,new,0,25,25,25,,,,,,,,,,,,,,,,,,,,,279.93688333299997,275.187454333,275.187454333,275.187454333,275.187454333,275.187454333,left,1.2087044999999534,276.68991262500003,276.68991262500003,276.68991262500003,276.68991262500003,276.68991262500003,276.68991262500003,276.68991262500003,276.68991262500003,276.68991262500003,2,3.224457124999958,280.186961417,,,,,,,,,,,991,2022-11-25_14h45.18.478,test3,2022.2.4,59.70967650599897,
None,None,None,None,None,maps/google_map_1.png,None,objects/2/2_121.jpg,None,indoors,Toy_ElephantPlastic.jpg,new,0,26,26,26,,,,,,,,,,,,,,,,,,,,,282.88710954199996,280.4374822919999,280.4374822919999,280.4374822919999,280.4374822919999,280.4374822919999,left,1.6993357089999108,282.422377375,282.422377375,282.422377375,282.422377375,282.422377375,282.422377375,282.422377375,282.422377375,282.422377375,2,0.4455403339999293,283.13641570799996,,,,,,,,,,,991,2022-11-25_14h45.18.478,test3,2022.2.4,59.70967650599897,
None,None,None,None,None,maps/google_map_1.png,None,objects/2/2_75.jpg,None,indoors,Cabinet_Display.jpg,new,0,27,27,27,,,,,,,,,,,,,,,,,,,,,286.73628062500006,283.387518042,283.387518042,283.387518042,283.387518042,283.387518042,left,2.7312585839998746,286.407137292,286.407137292,286.407137292,286.407137292,286.407137292,286.407137292,286.407137292,286.407137292,286.407137292,2,0.29745024999999714,286.986534333,,,,,,,,,,,991,2022-11-25_14h45.18.478,test3,2022.2.4,59.70967650599897,
None,None,None,None,None,maps/google_map_1.png,None,objects/2/2_83.jpg,None,indoors,Almond.jpg,new,0,28,28,28,,,,,,,,,,,,,,,,,,,,,289.853348458,287.23781733300007,287.23781733300007,287.23781733300007,287.23781733300007,287.23781733300007,left,1.0808384169998817,288.6057746669999,288.6057746669999,288.6057746669999,288.6057746669999,288.6057746669999,288.6057746669999,288.6057746669999,288.6057746669999,288.6057746669999,1,1.2183266250000315,290.103159042,,,,,,,,,,,991,2022-11-25_14h45.18.478,test3,2022.2.4,59.70967650599897,
None,None,None,None,None,maps/google_map_1.png,None,objects/2/2_111.jpg,None,outdoors,Sign_NoParking.jpg,new,0,29,29,29,,,,,,,,,,,,,,,,,,,,,291.954076667,290.35549312500007,290.35549312500007,290.35549312500007,290.35549312500007,290.35549312500007,left,0.965693750000014,291.62294124999994,291.62294124999994,291.62294124999994,291.62294124999994,291.62294124999994,291.62294124999994,291.62294124999994,291.62294124999994,291.62294124999994,1,0.31399650099990595,292.2035577500001,,,,,,,,,,,991,2022-11-25_14h45.18.478,test3,2022.2.4,59.70967650599897,
3.1750354808590098,238.319327731092,70.3865546218487,singletons,182.008403361345,maps/google_map_1.png,None,objects/1/1_134.jpg,0.0,outdoors,TowerEiffel.jpg,old,0,30,30,30,0,0,0,0,,,,,,,,,,,,,,,,,295.20390929199993,292.4540838749999,292.4540838749999,292.4540838749999,292.4540838749999,292.4540838749999,right,1.1596958330000007,293.9052925000001,293.9052925000001,293.9052925000001,293.9052925000001,293.9052925000001,293.9052925000001,293.9052925000001,293.9052925000001,293.9052925000001,6,1.273688542000059,295.68268250000006,295.68268250000006,295.68268250000006,295.68268250000006,184.0,['return'],[4.344081792000111],,,,,991,2022-11-25_14h45.18.478,test3,2022.2.4,59.70967650599897,
3.1750354808590098,238.319327731092,70.3865546218487,singletons,182.008403361345,maps/google_map_1.png,None,objects/1/1_134.jpg,0.0,outdoors,TowerEiffel.jpg,old,0,30,30,30,,,,,,,,,,,,,,,,,,,,,,,,,,,,,,,,,,,,,,,,,,,,,,,,,,,991,2022-11-25_14h45.18.478,test3,2022.2.4,59.70967650599897,
2.2555394032633997,71.8991596638655,251.89915966386602,high,129.298437129749,maps/google_map_1.png,147.399277465884,objects/1/1_93.jpg,0.0,outdoors,Bird_Toucan.jpg,old,0,31,31,31,0,0,0,0,,,,,,,,,,,,,,,,,302.820460292,300.287748167,300.287748167,300.287748167,300.287748167,300.287748167,right,1.378437125000005,301.956047208,301.956047208,301.956047208,301.956047208,301.956047208,301.956047208,301.956047208,301.956047208,301.956047208,6,0.8451356259998875,303.3046254169999,303.3046254169999,303.3046254169999,303.3046254169999,184,['return'],[0.8051926249999042],,,,,991,2022-11-25_14h45.18.478,test3,2022.2.4,59.70967650599897,
2.2555394032633997,71.8991596638655,251.89915966386602,high,129.298437129749,maps/google_map_1.png,147.399277465884,objects/1/1_93.jpg,0.0,outdoors,Bird_Toucan.jpg,old,0,31,31,31,,,,,,,,,,,,,,,,,,,,,,,,,,,,,,,,,,,,,,,,,,,,,,,,,,,991,2022-11-25_14h45.18.478,test3,2022.2.4,59.70967650599897,
None,None,None,None,None,maps/google_map_1.png,None,objects/2/2_10.jpg,None,outdoors,TrapAnimal.jpg,new,0,32,32,32,,,,,,,,,,,,,,,,,,,,,307.32071895800004,304.3711812920001,304.3711812920001,304.3711812920001,304.3711812920001,304.3711812920001,left,1.734666833999995,306.407294417,306.407294417,306.407294417,306.407294417,306.407294417,306.407294417,306.407294417,306.407294417,306.407294417,2,0.8845538340000303,307.570354208,,,,,,,,,,,991,2022-11-25_14h45.18.478,test3,2022.2.4,59.70967650599897,
None,None,None,None,None,maps/google_map_1.png,None,objects/2/2_135.jpg,None,outdoors,Toy_Slide.jpg,new,0,33,33,33,,,,,,,,,,,,,,,,,,,,,311.18692125000007,307.8211615,307.8211615,307.8211615,307.8211615,307.8211615,left,1.037013416999912,309.1570085420001,309.1570085420001,309.1570085420001,309.1570085420001,309.1570085420001,309.1570085420001,309.1570085420001,309.1570085420001,309.1570085420001,3,1.9983263330001364,311.4371705419999,,,,,,,,,,,991,2022-11-25_14h45.18.478,test3,2022.2.4,59.70967650599897,
1.1046566948971699,148.319327731092,328.319327731092,low,63.3242691342329,maps/google_map_1.png,5.0049414031405,objects/1/1_54.jpg,0.0,outdoors,LeafBlower.jpg,old,0,34,34,34,0,0,0,0,,,,,,,,,,,,,,,,,314.18744012499997,311.6878516669999,311.6878516669999,311.6878516669999,311.6878516669999,311.6878516669999,right,1.097621709000009,313.0728575830001,313.0728575830001,313.0728575830001,313.0728575830001,313.0728575830001,313.0728575830001,313.0728575830001,313.0728575830001,313.0728575830001,6,1.0956979589999492,314.668439625,314.668439625,314.668439625,314.668439625,52.5,['return'],[2.327923749999968],,,,,991,2022-11-25_14h45.18.478,test3,2022.2.4,59.70967650599897,
1.1046566948971699,148.319327731092,328.319327731092,low,63.3242691342329,maps/google_map_1.png,5.0049414031405,objects/1/1_54.jpg,0.0,outdoors,LeafBlower.jpg,old,0,34,34,34,,,,,,,,,,,,,,,,,,,,,,,,,,,,,,,,,,,,,,,,,,,,,,,,,,,991,2022-11-25_14h45.18.478,test3,2022.2.4,59.70967650599897,
5.80886038773308,71.8991596638655,251.89915966386602,low,332.99199674903,maps/google_map_1.png,8.907162914835391,objects/1/1_29.jpg,0.0,outdoors,WateringCan_Antique.jpg,old,0,35,35,35,0,0,0,0,,,,,,,,,,,,,,,,,320.1208194999999,317.2730274999999,317.2730274999999,317.2730274999999,317.2730274999999,317.2730274999999,right,1.4800357079999458,319.04016358299987,319.04016358299987,319.04016358299987,319.04016358299987,319.04016358299987,319.04016358299987,319.04016358299987,319.04016358299987,319.04016358299987,6,1.0478552089999766,320.5995975000001,320.5995975000001,320.5995975000001,320.5995975000001,59.0,['return'],[1.2780960830001504],,,,,991,2022-11-25_14h45.18.478,test3,2022.2.4,59.70967650599897,
5.80886038773308,71.8991596638655,251.89915966386602,low,332.99199674903,maps/google_map_1.png,8.907162914835391,objects/1/1_29.jpg,0.0,outdoors,WateringCan_Antique.jpg,old,0,35,35,35,,,,,,,,,,,,,,,,,,,,,,,,,,,,,,,,,,,,,,,,,,,,,,,,,,,991,2022-11-25_14h45.18.478,test3,2022.2.4,59.70967650599897,
None,None,None,None,None,maps/google_map_1.png,None,objects/2/2_23.jpg,None,indoors,KitchenCloth.jpg,new,0,36,36,36,,,,,,,,,,,,,,,,,,,,,324.5044627079999,322.1395190420001,322.1395190420001,322.1395190420001,322.1395190420001,322.1395190420001,left,1.0085723749999715,323.441413,323.441413,323.441413,323.441413,323.441413,323.441413,323.441413,323.441413,323.441413,3,1.0451622919998727,324.7540147079999,,,,,,,,,,,991,2022-11-25_14h45.18.478,test3,2022.2.4,59.70967650599897,
None,None,None,None,None,maps/google_map_1.png,None,objects/2/2_76.jpg,None,outdoors,Fence_Wooden.jpg,new,0,37,37,37,,,,,,,,,,,,,,,,,,,,,327.52108620800004,325.00652316700007,325.00652316700007,325.00652316700007,325.00652316700007,325.00652316700007,left,1.3001100000000179,326.60828241700005,326.60828241700005,326.60828241700005,326.60828241700005,326.60828241700005,326.60828241700005,326.60828241700005,326.60828241700005,326.60828241700005,3,0.8938144589998274,327.770887958,,,,,,,,,,,991,2022-11-25_14h45.18.478,test3,2022.2.4,59.70967650599897,
None,None,None,None,None,maps/google_map_1.png,None,objects/2/2_130.jpg,None,indoors,Monitor.jpg,new,0,38,38,38,,,,,,,,,,,,,,,,,,,,,329.987154917,328.021426,328.021426,328.021426,328.021426,328.021426,left,0.9583260000000564,329.2734439169999,329.2734439169999,329.2734439169999,329.2734439169999,329.2734439169999,329.2734439169999,329.2734439169999,329.2734439169999,329.2734439169999,2,0.6818006259999265,330.23752712500004,,,,,,,,,,,991,2022-11-25_14h45.18.478,test3,2022.2.4,59.70967650599897,
4.59030204690321,148.319327731092,328.319327731092,high,263.13833389891005,maps/google_map_1.png,155.180993832182,objects/1/1_10.jpg,0.0,indoors,Playdoh.jpg,old,0,39,39,39,0,0,0,0,,,,,,,,,,,,,,,,,332.65454412500003,330.488527,330.488527,330.488527,330.488527,330.488527,right,1.0763783749999902,331.85930375,331.85930375,331.85930375,331.85930375,331.85930375,331.85930375,331.85930375,331.85930375,331.85930375,5,0.7778882919998296,333.13367199999993,333.13367199999993,333.13367199999993,333.13367199999993,355.5,['return'],[3.247626541999921],,,,,991,2022-11-25_14h45.18.478,test3,2022.2.4,59.70967650599897,
4.59030204690321,148.319327731092,328.319327731092,high,263.13833389891005,maps/google_map_1.png,155.180993832182,objects/1/1_10.jpg,0.0,indoors,Playdoh.jpg,old,0,39,39,39,,,,,,,,,,,,,,,,,,,,,,,,,,,,,,,,,,,,,,,,,,,,,,,,,,,991,2022-11-25_14h45.18.478,test3,2022.2.4,59.70967650599897,
0.63243641477725,148.319327731092,328.319327731092,low,36.2543167706704,maps/google_map_1.png,22.065010960422,objects/1/1_30.jpg,0.0,outdoors,Boat_Ferry.jpg,old,0,40,40,40,0,0,0,0,,,,,,,,,,,,,,,,,339.8873484999999,336.6552416249999,336.6552416249999,336.6552416249999,336.6552416249999,336.6552416249999,right,1.9287298759999203,338.87370220799994,338.87370220799994,338.87370220799994,338.87370220799994,338.87370220799994,338.87370220799994,338.87370220799994,338.87370220799994,338.87370220799994,5,0.9903975840001067,340.3672691669999,340.3672691669999,340.3672691669999,340.3672691669999,22.0,['return'],[2.5579173340000807],,,,,991,2022-11-25_14h45.18.478,test3,2022.2.4,59.70967650599897,
0.63243641477725,148.319327731092,328.319327731092,low,36.2543167706704,maps/google_map_1.png,22.065010960422,objects/1/1_30.jpg,0.0,outdoors,Boat_Ferry.jpg,old,0,40,40,40,,,,,,,,,,,,,,,,,,,,,,,,,,,,,,,,,,,,,,,,,,,,,,,,,,,991,2022-11-25_14h45.18.478,test3,2022.2.4,59.70967650599897,
1.56623002974933,148.319327731092,328.319327731092,low,89.7838870556942,maps/google_map_1.png,31.464559324601804,objects/1/1_58.jpg,0.0,indoors,Candle_ChristmasDecor.jpg,old,0,41,41,41,0,0,0,0,,,,,,,,,,,,,,,,,345.98786766700005,343.189004458,343.189004458,343.189004458,343.189004458,343.189004458,right,1.4981791669998756,344.975261458,344.975261458,344.975261458,344.975261458,344.975261458,344.975261458,344.975261458,344.975261458,344.975261458,6,0.9888711259999354,346.46799991700004,346.46799991700004,346.46799991700004,346.46799991700004,97.0,['return'],[1.1121635010000546],,,,,991,2022-11-25_14h45.18.478,test3,2022.2.4,59.70967650599897,
1.56623002974933,148.319327731092,328.319327731092,low,89.7838870556942,maps/google_map_1.png,31.464559324601804,objects/1/1_58.jpg,0.0,indoors,Candle_ChristmasDecor.jpg,old,0,41,41,41,,,,,,,,,,,,,,,,,,,,,,,,,,,,,,,,,,,,,,,,,,,,,,,,,,,991,2022-11-25_14h45.18.478,test3,2022.2.4,59.70967650599897,
4.73222760742324,148.319327731092,328.319327731092,high,271.27419405611,maps/google_map_1.png,147.045133674983,objects/1/1_37.jpg,0.0,indoors,Cassette_Audio.jpg,old,0,42,42,42,0,0,0,0,,,,,,,,,,,,,,,,,350.5047560830001,347.84339387499995,347.84339387499995,347.84339387499995,347.84339387499995,347.84339387499995,right,1.426371708999909,349.558350625,349.558350625,349.558350625,349.558350625,349.558350625,349.558350625,349.558350625,349.558350625,349.558350625,6,0.9279718340000045,350.98218220800004,350.98218220800004,350.98218220800004,350.98218220800004,296.5,['return'],[1.846654833999878],,,,,991,2022-11-25_14h45.18.478,test3,2022.2.4,59.70967650599897,
4.73222760742324,148.319327731092,328.319327731092,high,271.27419405611,maps/google_map_1.png,147.045133674983,objects/1/1_37.jpg,0.0,indoors,Cassette_Audio.jpg,old,0,42,42,42,,,,,,,,,,,,,,,,,,,,,,,,,,,,,,,,,,,,,,,,,,,,,,,,,,,991,2022-11-25_14h45.18.478,test3,2022.2.4,59.70967650599897,
None,None,None,None,None,maps/google_map_1.png,None,objects/2/2_40.jpg,None,indoors,Toy_Boat.jpg,new,0,43,43,43,,,,,,,,,,,,,,,,,,,,,356.7548825419999,353.0883127919999,353.0883127919999,353.0883127919999,353.0883127919999,353.0883127919999,left,1.6311849170000414,355.00714641700006,355.00714641700006,355.00714641700006,355.00714641700006,355.00714641700006,355.00714641700006,355.00714641700006,355.00714641700006,355.00714641700006,2,1.7201555419998158,357.00459612500003,,,,,,,,,,,991,2022-11-25_14h45.18.478,test3,2022.2.4,59.70967650599897,
4.9420248096043204,148.319327731092,328.319327731092,high,283.300785263942,maps/google_map_1.png,135.01854246715098,objects/1/1_1.jpg,0.0,indoors,Mat_Door.jpg,old,0,44,44,44,0,0,0,0,,,,,,,,,,,,,,,,,367.3546732079999,357.25635725000006,357.25635725000006,357.25635725000006,357.25635725000006,357.25635725000006,left,3.1580422079999835,360.7076414169999,360.7076414169999,360.7076414169999,360.7076414169999,360.7076414169999,360.7076414169999,360.7076414169999,360.7076414169999,360.7076414169999,3,6.617249208000089,367.8354361669999,367.8354361669999,367.8354361669999,367.8354361669999,341.5,['return'],[4.253489542000011],,,,,991,2022-11-25_14h45.18.478,test3,2022.2.4,59.70967650599897,
4.9420248096043204,148.319327731092,328.319327731092,high,283.300785263942,maps/google_map_1.png,135.01854246715098,objects/1/1_1.jpg,0.0,indoors,Mat_Door.jpg,old,0,44,44,44,,,,,,,,,,,,,,,,,,,,,,,,,,,,,,,,,,,,,,,,,,,,,,,,,,,991,2022-11-25_14h45.18.478,test3,2022.2.4,59.70967650599897,
1.90628257275586,148.319327731092,328.319327731092,medium,109.277344935049,maps/google_map_1.png,50.9580172039569,objects/1/1_103.jpg,0.0,outdoors,Door_Green.jpg,old,0,45,45,45,0,0,0,0,,,,,,,,,,,,,,,,,375.75489912500007,372.35707212500006,372.35707212500006,372.35707212500006,372.35707212500006,372.35707212500006,left,2.0478010840000707,374.69270004200007,374.69270004200007,374.69270004200007,374.69270004200007,374.69270004200007,374.69270004200007,374.69270004200007,374.69270004200007,374.69270004200007,3,1.0323480010000594,376.2336270829999,376.2336270829999,376.2336270829999,376.2336270829999,222.5,['return'],[3.746396792000155],,,,,991,2022-11-25_14h45.18.478,test3,2022.2.4,59.70967650599897,
1.90628257275586,148.319327731092,328.319327731092,medium,109.277344935049,maps/google_map_1.png,50.9580172039569,objects/1/1_103.jpg,0.0,outdoors,Door_Green.jpg,old,0,45,45,45,,,,,,,,,,,,,,,,,,,,,,,,,,,,,,,,,,,,,,,,,,,,,,,,,,,991,2022-11-25_14h45.18.478,test3,2022.2.4,59.70967650599897,
2.7836651042047103,71.8991596638655,251.89915966386602,high,159.57315883976102,maps/google_map_1.png,177.673999175895,objects/1/1_47.jpg,0.0,outdoors,Caribou.jpg,old,0,46,46,46,0,0,0,0,,,,,,,,,,,,,,,,,383.77230704199997,380.24031708300004,380.24031708300004,380.24031708300004,380.24031708300004,380.24031708300004,right,1.687718167000071,382.225425458,382.225425458,382.225425458,382.225425458,382.225425458,382.225425458,382.225425458,382.225425458,382.225425458,3,1.5290912919998618,384.25189479200003,384.25189479200003,384.25189479200003,384.25189479200003,37,['return'],[2.3456928750000543],,,,,991,2022-11-25_14h45.18.478,test3,2022.2.4,59.70967650599897,
2.7836651042047103,71.8991596638655,251.89915966386602,high,159.57315883976102,maps/google_map_1.png,177.673999175895,objects/1/1_47.jpg,0.0,outdoors,Caribou.jpg,old,0,46,46,46,,,,,,,,,,,,,,,,,,,,,,,,,,,,,,,,,,,,,,,,,,,,,,,,,,,991,2022-11-25_14h45.18.478,test3,2022.2.4,59.70967650599897,
1.2067722618552401,148.319327731092,328.319327731092,low,69.1780277496632,maps/google_map_1.png,10.8587000185708,objects/1/1_24.jpg,0.0,indoors,Box_FirstAid.jpg,old,0,47,47,47,0,0,0,0,,,,,,,,,,,,,,,,,390.05495374999987,386.87255600000003,386.87255600000003,386.87255600000003,386.87255600000003,386.87255600000003,right,1.4806837509999013,388.641514292,388.641514292,388.641514292,388.641514292,388.641514292,388.641514292,388.641514292,388.641514292,388.641514292,6,1.3955948749998015,390.53410541699986,390.53410541699986,390.53410541699986,390.53410541699986,76.0,['return'],[2.080175875000009],,,,,991,2022-11-25_14h45.18.478,test3,2022.2.4,59.70967650599897,
1.2067722618552401,148.319327731092,328.319327731092,low,69.1780277496632,maps/google_map_1.png,10.8587000185708,objects/1/1_24.jpg,0.0,indoors,Box_FirstAid.jpg,old,0,47,47,47,,,,,,,,,,,,,,,,,,,,,,,,,,,,,,,,,,,,,,,,,,,,,,,,,,,991,2022-11-25_14h45.18.478,test3,2022.2.4,59.70967650599897,
0.48605298537194497,71.8991596638655,251.89915966386602,medium,27.862909989474502,maps/google_map_1.png,45.963750325609,objects/1/1_39.jpg,0.0,outdoors,SpiderWeb.jpg,old,0,48,48,48,0,0,0,0,,,,,,,,,,,,,,,,,395.65577341699986,392.89160549999997,392.89160549999997,392.89160549999997,392.89160549999997,392.89160549999997,right,1.6254064169999083,394.808876583,394.808876583,394.808876583,394.808876583,394.808876583,394.808876583,394.808876583,394.808876583,394.808876583,6,0.8290066670000442,396.1342414999999,396.1342414999999,396.1342414999999,396.1342414999999,352.0,['return'],[0.9270190009998487],,,,,991,2022-11-25_14h45.18.478,test3,2022.2.4,59.70967650599897,
0.48605298537194497,71.8991596638655,251.89915966386602,medium,27.862909989474502,maps/google_map_1.png,45.963750325609,objects/1/1_39.jpg,0.0,outdoors,SpiderWeb.jpg,old,0,48,48,48,,,,,,,,,,,,,,,,,,,,,,,,,,,,,,,,,,,,,,,,,,,,,,,,,,,991,2022-11-25_14h45.18.478,test3,2022.2.4,59.70967650599897,
None,None,None,None,None,maps/google_map_1.png,None,objects/2/2_57.jpg,None,outdoors,Steeple.jpg,new,0,49,49,49,,,,,,,,,,,,,,,,,,,,,400.70523979199993,397.32287795799994,397.32287795799994,397.32287795799994,397.32287795799994,397.32287795799994,left,1.4410480009997855,399.05886633299997,399.05886633299997,399.05886633299997,399.05886633299997,399.05886633299997,399.05886633299997,399.05886633299997,399.05886633299997,399.05886633299997,3,1.622960666999802,400.955458208,,,,,,,,,,,991,2022-11-25_14h45.18.478,test3,2022.2.4,59.70967650599897,
None,None,None,None,None,maps/google_map_1.png,None,objects/2/2_29.jpg,None,indoors,Tape_Scotch.jpg,new,0,50,50,50,,,,,,,,,,,,,,,,,,,,,403.17174491700007,401.20626816699996,401.20626816699996,401.20626816699996,401.20626816699996,401.20626816699996,left,1.2886595829999123,402.79147762499997,402.79147762499997,402.79147762499997,402.79147762499997,402.79147762499997,402.79147762499997,402.79147762499997,402.79147762499997,402.79147762499997,2,0.35450254199997744,403.421904625,,,,,,,,,,,991,2022-11-25_14h45.18.478,test3,2022.2.4,59.70967650599897,
2.1438934625023203,71.8991596638655,251.89915966386602,high,122.898351353636,maps/google_map_1.png,140.999191689771,objects/1/1_7.jpg,0.0,outdoors,Hottub.jpg,old,0,51,51,51,0,0,0,0,,,,,,,,,,,,,,,,,406.07208850000006,403.67316541700006,403.67316541700006,403.67316541700006,403.67316541700006,403.67316541700006,right,1.2591472509999448,405.2253976669999,405.2253976669999,405.2253976669999,405.2253976669999,405.2253976669999,405.2253976669999,405.2253976669999,405.2253976669999,405.2253976669999,6,0.8279077919997917,406.5513062079999,406.5513062079999,406.5513062079999,406.5513062079999,60.5,['return'],[1.4248931669998228],,,,,991,2022-11-25_14h45.18.478,test3,2022.2.4,59.70967650599897,
2.1438934625023203,71.8991596638655,251.89915966386602,high,122.898351353636,maps/google_map_1.png,140.999191689771,objects/1/1_7.jpg,0.0,outdoors,Hottub.jpg,old,0,51,51,51,,,,,,,,,,,,,,,,,,,,,,,,,,,,,,,,,,,,,,,,,,,,,,,,,,,991,2022-11-25_14h45.18.478,test3,2022.2.4,59.70967650599897,
2.96452941176471,58.3193277310925,139.773109243697,singletons,169.941176470588,maps/google_map_1.png,None,objects/1/1_94.jpg,0.0,indoors,Toy_BlocksLetter.jpg,old,0,52,52,52,0,0,0,0,,,,,,,,,,,,,,,,,412.03897725,408.239919417,408.239919417,408.239919417,408.239919417,408.239919417,right,1.5789637090000497,410.108579708,410.108579708,410.108579708,410.108579708,410.108579708,410.108579708,410.108579708,410.108579708,410.108579708,6,1.9028079169999046,412.516845417,412.516845417,412.516845417,412.516845417,225.0,['return'],[2.1011819169999626],,,,,991,2022-11-25_14h45.18.478,test3,2022.2.4,59.70967650599897,
2.96452941176471,58.3193277310925,139.773109243697,singletons,169.941176470588,maps/google_map_1.png,None,objects/1/1_94.jpg,0.0,indoors,Toy_BlocksLetter.jpg,old,0,52,52,52,,,,,,,,,,,,,,,,,,,,,,,,,,,,,,,,,,,,,,,,,,,,,,,,,,,991,2022-11-25_14h45.18.478,test3,2022.2.4,59.70967650599897,
6.06383294252329,71.8991596638655,251.89915966386602,low,347.608257851653,maps/google_map_1.png,5.7090981877878795,objects/1/1_104.jpg,0.0,indoors,Pitcher.jpg,old,0,53,53,53,0,0,0,0,,,,,,,,,,,,,,,,,416.9220505829999,414.87204087500004,414.87204087500004,414.87204087500004,414.87204087500004,414.87204087500004,right,1.197830084000202,416.360565125,416.360565125,416.360565125,416.360565125,416.360565125,416.360565125,416.360565125,416.360565125,416.360565125,6,0.531634709000059,417.39742720799995,417.39742720799995,417.39742720799995,417.39742720799995,355.5,['return'],[2.5836986670000215],,,,,991,2022-11-25_14h45.18.478,test3,2022.2.4,59.70967650599897,
6.06383294252329,71.8991596638655,251.89915966386602,low,347.608257851653,maps/google_map_1.png,5.7090981877878795,objects/1/1_104.jpg,0.0,indoors,Pitcher.jpg,old,0,53,53,53,,,,,,,,,,,,,,,,,,,,,,,,,,,,,,,,,,,,,,,,,,,,,,,,,,,991,2022-11-25_14h45.18.478,test3,2022.2.4,59.70967650599897,
3.74303809754345,148.319327731092,328.319327731092,high,214.569062916503,maps/google_map_1.png,156.249735185411,objects/1/1_16.jpg,0.0,indoors,Mask_Ski.jpg,old,0,54,54,54,0,0,0,0,,,,,,,,,,,,,,,,,422.88894108299996,420.239840792,420.239840792,420.239840792,420.239840792,420.239840792,right,1.5739802919998738,422.10952129199995,422.10952129199995,422.10952129199995,422.10952129199995,422.10952129199995,422.10952129199995,422.10952129199995,422.10952129199995,422.10952129199995,6,0.7568183339998313,423.3700866669999,423.3700866669999,423.3700866669999,423.3700866669999,95.5,['return'],[1.3601750420001508],,,,,991,2022-11-25_14h45.18.478,test3,2022.2.4,59.70967650599897,
3.74303809754345,148.319327731092,328.319327731092,high,214.569062916503,maps/google_map_1.png,156.249735185411,objects/1/1_16.jpg,0.0,indoors,Mask_Ski.jpg,old,0,54,54,54,,,,,,,,,,,,,,,,,,,,,,,,,,,,,,,,,,,,,,,,,,,,,,,,,,,991,2022-11-25_14h45.18.478,test3,2022.2.4,59.70967650599897,
None,None,None,None,None,maps/google_map_1.png,None,objects/2/2_110.jpg,None,indoors,Flute_Wooden.jpg,new,0,55,55,55,,,,,,,,,,,,,,,,,,,,,427.1725899579999,424.989910583,424.989910583,424.989910583,424.989910583,424.989910583,left,1.1826342919999888,426.45833904200003,426.45833904200003,426.45833904200003,426.45833904200003,426.45833904200003,426.45833904200003,426.45833904200003,426.45833904200003,426.45833904200003,2,0.6955169589999741,427.42278091699995,,,,,,,,,,,991,2022-11-25_14h45.18.478,test3,2022.2.4,59.70967650599897,
5.99860062387725,71.8991596638655,251.89915966386602,low,343.86882557258104,maps/google_map_1.png,1.96966590871582,objects/1/1_13.jpg,0.0,indoors,Bagel.jpg,old,0,56,56,56,0,0,0,0,,,,,,,,,,,,,,,,,429.539219708,427.67407345800007,427.67407345800007,427.67407345800007,427.67407345800007,427.67407345800007,right,1.0251446669998359,428.99243754200006,428.99243754200006,428.99243754200006,428.99243754200006,428.99243754200006,428.99243754200006,428.99243754200006,428.99243754200006,428.99243754200006,5,0.5255767080001306,430.0180211669999,430.0180211669999,430.0180211669999,430.0180211669999,330.5,['return'],[2.324080084000002],,,,,991,2022-11-25_14h45.18.478,test3,2022.2.4,59.70967650599897,
5.99860062387725,71.8991596638655,251.89915966386602,low,343.86882557258104,maps/google_map_1.png,1.96966590871582,objects/1/1_13.jpg,0.0,indoors,Bagel.jpg,old,0,56,56,56,,,,,,,,,,,,,,,,,,,,,,,,,,,,,,,,,,,,,,,,,,,,,,,,,,,991,2022-11-25_14h45.18.478,test3,2022.2.4,59.70967650599897,
None,None,None,None,None,maps/google_map_1.png,None,objects/2/2_136.jpg,None,outdoors,WaterWell.jpg,new,0,57,57,57,,,,,,,,,,,,,,,,,,,,,434.9057057079999,432.60732837499995,432.60732837499995,432.60732837499995,432.60732837499995,432.60732837499995,left,1.5713979169998993,434.47666604200003,434.47666604200003,434.47666604200003,434.47666604200003,434.47666604200003,434.47666604200003,434.47666604200003,434.47666604200003,434.47666604200003,2,0.3970780840000998,435.1555351249999,,,,,,,,,,,991,2022-11-25_14h45.18.478,test3,2022.2.4,59.70967650599897,
None,None,None,None,None,maps/google_map_1.png,None,objects/2/2_43.jpg,None,outdoors,Butterfly.jpg,new,0,58,58,58,,,,,,,,,,,,,,,,,,,,,437.38932495799986,435.40787387499995,435.40787387499995,435.40787387499995,435.40787387499995,435.40787387499995,left,1.0998477090000733,436.80893720799986,436.80893720799986,436.80893720799986,436.80893720799986,436.80893720799986,436.80893720799986,436.80893720799986,436.80893720799986,436.80893720799986,4,0.5572095840001339,437.63931779199993,,,,,,,,,,,991,2022-11-25_14h45.18.478,test3,2022.2.4,59.70967650599897,
1.49098692810458,161.89915966386602,172.95798319327702,singletons,85.47058823529409,maps/google_map_1.png,None,objects/1/1_40.jpg,0.0,outdoors,Dog_SaintBernard.jpg,old,0,59,59,59,0,0,0,0,,,,,,,,,,,,,,,,,440.055758167,437.89122075,437.89122075,437.89122075,437.89122075,437.89122075,right,1.2946097919999602,439.4757656249999,439.4757656249999,439.4757656249999,439.4757656249999,439.4757656249999,439.4757656249999,439.4757656249999,439.4757656249999,439.4757656249999,6,0.5555057499999521,440.5373339999999,440.5373339999999,440.5373339999999,440.5373339999999,32.5,['return'],[4.691996625000115],,,,,991,2022-11-25_14h45.18.478,test3,2022.2.4,59.70967650599897,
1.49098692810458,161.89915966386602,172.95798319327702,singletons,85.47058823529409,maps/google_map_1.png,None,objects/1/1_40.jpg,0.0,outdoors,Dog_SaintBernard.jpg,old,0,59,59,59,,,,,,,,,,,,,,,,,,,,,,,,,,,,,,,,,,,,,,,,,,,,,,,,,,,991,2022-11-25_14h45.18.478,test3,2022.2.4,59.70967650599897,
2.4140503084802,148.319327731092,328.319327731092,medium,138.385049530712,maps/google_map_1.png,80.06572179961951,objects/1/1_46.jpg,0.0,outdoors,SiloGrain.jpg,old,0,60,60,60,0,0,0,0,,,,,,,,,,,,,,,,,448.62295849999987,445.490552042,445.490552042,445.490552042,445.490552042,445.490552042,right,1.5142097510000667,447.29230504199995,447.29230504199995,447.29230504199995,447.29230504199995,447.29230504199995,447.29230504199995,447.29230504199995,447.29230504199995,447.29230504199995,5,1.3122103760000527,449.103341625,449.103341625,449.103341625,449.103341625,186.5,['return'],[3.1149182089999385],,,,,991,2022-11-25_14h45.18.478,test3,2022.2.4,59.70967650599897,
2.4140503084802,148.319327731092,328.319327731092,medium,138.385049530712,maps/google_map_1.png,80.06572179961951,objects/1/1_46.jpg,0.0,outdoors,SiloGrain.jpg,old,0,60,60,60,,,,,,,,,,,,,,,,,,,,,,,,,,,,,,,,,,,,,,,,,,,,,,,,,,,991,2022-11-25_14h45.18.478,test3,2022.2.4,59.70967650599897,
None,None,None,None,None,maps/google_map_1.png,None,objects/2/2_16.jpg,None,indoors,Hockey_Puck.jpg,new,0,61,61,61,,,,,,,,,,,,,,,,,,,,,455.40596266700004,452.49037770799987,452.49037770799987,452.49037770799987,452.49037770799987,452.49037770799987,left,2.2185082499999,455.00922812499994,455.00922812499994,455.00922812499994,455.00922812499994,455.00922812499994,455.00922812499994,455.00922812499994,455.00922812499994,455.00922812499994,3,0.3655463759999975,455.6567319999999,,,,,,,,,,,991,2022-11-25_14h45.18.478,test3,2022.2.4,59.70967650599897,
5.477868705184551,71.8991596638655,251.89915966386602,low,314.017951252617,maps/google_map_1.png,27.881208411248103,objects/1/1_128.jpg,0.0,outdoors,DogHouse.jpg,old,0,62,62,62,0,0,0,0,,,,,,,,,,,,,,,,,458.4068065419999,455.90791995799987,455.90791995799987,455.90791995799987,455.90791995799987,455.90791995799987,right,1.5260223340000039,457.72589808299995,457.72589808299995,457.72589808299995,457.72589808299995,457.72589808299995,457.72589808299995,457.72589808299995,457.72589808299995,457.72589808299995,6,0.6621626669999614,458.8861146669999,458.8861146669999,458.8861146669999,458.8861146669999,64.0,['return'],[1.5178090000000566],,,,,991,2022-11-25_14h45.18.478,test3,2022.2.4,59.70967650599897,
5.477868705184551,71.8991596638655,251.89915966386602,low,314.017951252617,maps/google_map_1.png,27.881208411248103,objects/1/1_128.jpg,0.0,outdoors,DogHouse.jpg,old,0,62,62,62,,,,,,,,,,,,,,,,,,,,,,,,,,,,,,,,,,,,,,,,,,,,,,,,,,,991,2022-11-25_14h45.18.478,test3,2022.2.4,59.70967650599897,
None,None,None,None,None,maps/google_map_1.png,None,objects/2/2_116.jpg,None,outdoors,House_Rural.jpg,new,0,63,63,63,,,,,,,,,,,,,,,,,,,,,463.32352179200007,460.6743529170001,460.6743529170001,460.6743529170001,460.6743529170001,460.6743529170001,left,1.636828249999894,462.6102105,462.6102105,462.6102105,462.6102105,462.6102105,462.6102105,462.6102105,462.6102105,462.6102105,2,0.6816002920000983,463.5731835419999,,,,,,,,,,,991,2022-11-25_14h45.18.478,test3,2022.2.4,59.70967650599897,
3.1515995895619704,71.8991596638655,251.89915966386602,high,180.664944624571,maps/google_map_1.png,161.23421503929399,objects/1/1_72.jpg,0.0,indoors,Hat_Party.jpg,old,0,64,64,64,0,0,0,0,,,,,,,,,,,,,,,,,466.6897261249999,463.82438829199987,463.82438829199987,463.82438829199987,463.82438829199987,463.82438829199987,left,2.251284375999944,466.3753623329999,466.3753623329999,466.3753623329999,466.3753623329999,466.3753623329999,466.3753623329999,466.3753623329999,466.3753623329999,466.3753623329999,3,0.29133295899998757,467.16889454199986,467.16889454199986,467.16889454199986,467.16889454199986,257.5,['return'],[3.727393042000017],,,,,991,2022-11-25_14h45.18.478,test3,2022.2.4,59.70967650599897,
3.1515995895619704,71.8991596638655,251.89915966386602,high,180.664944624571,maps/google_map_1.png,161.23421503929399,objects/1/1_72.jpg,0.0,indoors,Hat_Party.jpg,old,0,64,64,64,,,,,,,,,,,,,,,,,,,,,,,,,,,,,,,,,,,,,,,,,,,,,,,,,,,991,2022-11-25_14h45.18.478,test3,2022.2.4,59.70967650599897,
1.0210732700788,148.319327731092,328.319327731092,low,58.532862615982,maps/google_map_1.png,0.213534884889627,objects/1/1_43.jpg,0.0,indoors,Printer.jpg,old,0,65,65,65,0,0,0,0,,,,,,,,,,,,,,,,,474.79045737499996,471.15710883299994,471.15710883299994,471.15710883299994,471.15710883299994,471.15710883299994,left,2.856150499999899,474.30941074999987,474.30941074999987,474.30941074999987,474.30941074999987,474.30941074999987,474.30941074999987,474.30941074999987,474.30941074999987,474.30941074999987,2,0.46255774999997357,475.266754625,475.266754625,475.266754625,475.266754625,30.5,['return'],[1.8403393339998502],,,,,991,2022-11-25_14h45.18.478,test3,2022.2.4,59.70967650599897,
1.0210732700788,148.319327731092,328.319327731092,low,58.532862615982,maps/google_map_1.png,0.213534884889627,objects/1/1_43.jpg,0.0,indoors,Printer.jpg,old,0,65,65,65,,,,,,,,,,,,,,,,,,,,,,,,,,,,,,,,,,,,,,,,,,,,,,,,,,,991,2022-11-25_14h45.18.478,test3,2022.2.4,59.70967650599897,
0.9304638738147909,148.319327731092,328.319327731092,low,53.3386934033957,maps/google_map_1.png,4.98063432769676,objects/1/1_141.jpg,0.0,outdoors,Caterpillar.jpg,old,0,66,66,66,0,0,0,0,,,,,,,,,,,,,,,,,480.24021295800003,477.37442491699994,477.37442491699994,477.37442491699994,477.37442491699994,477.37442491699994,right,1.3436192499999606,479.00872645799996,479.00872645799996,479.00872645799996,479.00872645799996,479.00872645799996,479.00872645799996,479.00872645799996,479.00872645799996,479.00872645799996,5,1.2022237079999059,480.71880833299997,480.71880833299997,480.71880833299997,480.71880833299997,31.0,['return'],[3.252045500999998],,,,,991,2022-11-25_14h45.18.478,test3,2022.2.4,59.70967650599897,
0.9304638738147909,148.319327731092,328.319327731092,low,53.3386934033957,maps/google_map_1.png,4.98063432769676,objects/1/1_141.jpg,0.0,outdoors,Caterpillar.jpg,old,0,66,66,66,,,,,,,,,,,,,,,,,,,,,,,,,,,,,,,,,,,,,,,,,,,,,,,,,,,991,2022-11-25_14h45.18.478,test3,2022.2.4,59.70967650599897,
None,None,None,None,None,maps/google_map_1.png,None,objects/2/2_86.jpg,None,outdoors,GoldNugget.jpg,new,0,67,67,67,,,,,,,,,,,,,,,,,,,,,487.5568524170001,484.2436519170001,484.2436519170001,484.2436519170001,484.2436519170001,484.2436519170001,left,1.24613495899996,485.777672125,485.777672125,485.777672125,485.777672125,485.777672125,485.777672125,485.777672125,485.777672125,485.777672125,3,1.753545582999891,487.80661695799995,,,,,,,,,,,991,2022-11-25_14h45.18.478,test3,2022.2.4,59.70967650599897,
None,None,None,None,None,maps/google_map_1.png,None,objects/2/2_19.jpg,None,outdoors,Goat.jpg,new,0,68,68,68,,,,,,,,,,,,,,,,,,,,,491.10714499999995,488.057862417,488.057862417,488.057862417,488.057862417,488.057862417,left,1.389940582999884,489.74323312499996,489.74323312499996,489.74323312499996,489.74323312499996,489.74323312499996,489.74323312499996,489.74323312499996,489.74323312499996,489.74323312499996,1,1.341307916999881,491.35677929200006,,,,,,,,,,,991,2022-11-25_14h45.18.478,test3,2022.2.4,59.70967650599897,
3.20556994268232,148.319327731092,328.319327731092,medium,183.75878652319,maps/google_map_1.png,125.43945879209801,objects/1/1_62.jpg,0.0,outdoors,Seashell_AlternateTellin.jpg,old,0,69,69,69,0,0,0,0,,,,,,,,,,,,,,,,,493.9903260419999,491.60808529199994,491.60808529199994,491.60808529199994,491.60808529199994,491.60808529199994,left,0.769465958999831,492.676040458,492.676040458,492.676040458,492.676040458,492.676040458,492.676040458,492.676040458,492.676040458,492.676040458,3,1.2813020829997868,494.47042458300007,494.47042458300007,494.47042458300007,494.47042458300007,19.0,['return'],[1.7164180420001003],,,,,991,2022-11-25_14h45.18.478,test3,2022.2.4,59.70967650599897,
3.20556994268232,148.319327731092,328.319327731092,medium,183.75878652319,maps/google_map_1.png,125.43945879209801,objects/1/1_62.jpg,0.0,outdoors,Seashell_AlternateTellin.jpg,old,0,69,69,69,,,,,,,,,,,,,,,,,,,,,,,,,,,,,,,,,,,,,,,,,,,,,,,,,,,991,2022-11-25_14h45.18.478,test3,2022.2.4,59.70967650599897,
None,None,None,None,None,maps/google_map_1.png,None,objects/2/2_35.jpg,None,indoors,Hotdog_Weiner.jpg,new,0,70,70,70,,,,,,,,,,,,,,,,,,,,,498.8581617079999,496.45779770800004,496.45779770800004,496.45779770800004,496.45779770800004,496.45779770800004,left,1.4644150830000626,498.20883670800004,498.20883670800004,498.20883670800004,498.20883670800004,498.20883670800004,498.20883670800004,498.20883670800004,498.20883670800004,498.20883670800004,2,0.6245270839998511,498.20883670800004,,,,,,,,,,,991,2022-11-25_14h45.18.478,test3,2022.2.4,59.70967650599897,
None,None,None,None,None,maps/google_map_1.png,None,objects/2/2_88.jpg,None,indoors,Puzzle_Piece.jpg,new,0,71,71,71,,,,,,,,,,,,,,,,,,,,,500.92340416699994,499.37464191699996,499.37464191699996,499.37464191699996,499.37464191699996,499.37464191699996,left,0.9817309169999362,500.6429955419999,500.6429955419999,500.6429955419999,500.6429955419999,500.6429955419999,500.6429955419999,500.6429955419999,500.6429955419999,500.6429955419999,2,0.2491514170000073,501.173548667,,,,,,,,,,,991,2022-11-25_14h45.18.478,test3,2022.2.4,59.70967650599897,
None,None,None,None,None,maps/google_map_1.png,None,objects/2/2_94.jpg,None,outdoors,Playground.jpg,new,0,72,72,72,,,,,,,,,,,,,,,,,,,,,504.34038775,501.4249710419999,501.4249710419999,501.4249710419999,501.4249710419999,501.4249710419999,left,2.2892920010000353,504.010169917,504.010169917,504.010169917,504.010169917,504.010169917,504.010169917,504.010169917,504.010169917,504.010169917,2,0.29895050000016,504.59022416699986,,,,,,,,,,,991,2022-11-25_14h45.18.478,test3,2022.2.4,59.70967650599897,
None,None,None,None,None,maps/google_map_1.png,None,objects/2/2_6.jpg,None,outdoors,Dragonfly.jpg,new,0,73,73,73,,,,,,,,,,,,,,,,,,,,,506.4403587080001,504.8415654170001,504.8415654170001,504.8415654170001,504.8415654170001,504.8415654170001,left,0.7606834590000062,505.89268366700003,505.89268366700003,505.89268366700003,505.89268366700003,505.89268366700003,505.89268366700003,505.89268366700003,505.89268366700003,505.89268366700003,2,0.5183711670000548,506.69038116699994,,,,,,,,,,,991,2022-11-25_14h45.18.478,test3,2022.2.4,59.70967650599897,
None,None,None,None,None,maps/google_map_1.png,None,objects/2/2_47.jpg,None,indoors,Handbag.jpg,new,0,74,74,74,,,,,,,,,,,,,,,,,,,,,508.473719417,506.9427714169999,506.9427714169999,506.9427714169999,506.9427714169999,506.9427714169999,left,0.8586958329998424,508.0939190419999,508.0939190419999,508.0939190419999,508.0939190419999,508.0939190419999,508.0939190419999,508.0939190419999,508.0939190419999,508.0939190419999,1,0.3620769169998539,508.723957917,,,,,,,,,,,991,2022-11-25_14h45.18.478,test3,2022.2.4,59.70967650599897,
None,None,None,None,None,maps/google_map_1.png,None,objects/2/2_143.jpg,None,indoors,Heater_ElectricPortable.jpg,new,0,75,75,75,,,,,,,,,,,,,,,,,,,,,510.807451375,508.974908292,508.974908292,508.974908292,508.974908292,508.974908292,left,1.18798675000005,510.459979042,510.459979042,510.459979042,510.459979042,510.459979042,510.459979042,510.459979042,510.459979042,510.459979042,2,0.3166024589999097,511.05760362499996,,,,,,,,,,,991,2022-11-25_14h45.18.478,test3,2022.2.4,59.70967650599897,
None,None,None,None,None,maps/google_map_1.png,None,objects/2/2_44.jpg,None,outdoors,Bicycle_Kids.jpg,new,0,76,76,76,,,,,,,,,,,,,,,,,,,,,512.8405237079999,511.3090367499999,511.3090367499999,511.3090367499999,511.3090367499999,511.3090367499999,left,0.8910502499999211,512.494175583,512.494175583,512.494175583,512.494175583,512.494175583,512.494175583,512.494175583,512.494175583,512.494175583,2,0.32639004199984356,513.090635042,,,,,,,,,,,991,2022-11-25_14h45.18.478,test3,2022.2.4,59.70967650599897,
5.59613573700786,71.8991596638655,251.89915966386602,low,320.797590019559,maps/google_map_1.png,21.1015696443065,objects/1/1_48.jpg,0.0,outdoors,Toy_Lizard.jpg,old,0,77,77,77,0,0,0,0,,,,,,,,,,,,,,,,,515.9572397919999,513.3415774580001,513.3415774580001,513.3415774580001,513.3415774580001,513.3415774580001,right,1.1874153760001036,514.826457375,514.826457375,514.826457375,514.826457375,514.826457375,514.826457375,514.826457375,514.826457375,514.826457375,4,1.1062097919999587,516.437015,516.437015,516.437015,516.437015,20.5,['return'],[2.287768291999896],,,,,991,2022-11-25_14h45.18.478,test3,2022.2.4,59.70967650599897,
5.59613573700786,71.8991596638655,251.89915966386602,low,320.797590019559,maps/google_map_1.png,21.1015696443065,objects/1/1_48.jpg,0.0,outdoors,Toy_Lizard.jpg,old,0,77,77,77,,,,,,,,,,,,,,,,,,,,,,,,,,,,,,,,,,,,,,,,,,,,,,,,,,,991,2022-11-25_14h45.18.478,test3,2022.2.4,59.70967650599897,
None,None,None,None,None,maps/google_map_1.png,None,objects/2/2_46.jpg,None,outdoors,PlayerFootball.jpg,new,0,78,78,78,,,,,,,,,,,,,,,,,,,,,521.2079315829999,518.991094833,518.991094833,518.991094833,518.991094833,518.991094833,left,1.1318471250000357,520.409518708,520.409518708,520.409518708,520.409518708,520.409518708,520.409518708,520.409518708,520.409518708,520.409518708,1,0.7687091259998624,521.4579194999999,,,,,,,,,,,991,2022-11-25_14h45.18.478,test3,2022.2.4,59.70967650599897,
5.84035167694754,71.8991596638655,251.89915966386602,low,334.797229888712,maps/google_map_1.png,7.10192977515327,objects/1/1_106.jpg,0.0,indoors,PotatoMasher_Grate.jpg,old,0,79,79,79,0,0,0,0,,,,,,,,,,,,,,,,,523.657533667,521.708046875,521.708046875,521.708046875,521.708046875,521.708046875,right,0.9600035839999919,522.960057625,522.960057625,522.960057625,522.960057625,522.960057625,522.960057625,522.960057625,522.960057625,522.960057625,5,0.666629541999896,524.1395701249999,524.1395701249999,524.1395701249999,524.1395701249999,297.0,['return'],[4.275309999999877],,,,,991,2022-11-25_14h45.18.478,test3,2022.2.4,59.70967650599897,
5.84035167694754,71.8991596638655,251.89915966386602,low,334.797229888712,maps/google_map_1.png,7.10192977515327,objects/1/1_106.jpg,0.0,indoors,PotatoMasher_Grate.jpg,old,0,79,79,79,,,,,,,,,,,,,,,,,,,,,,,,,,,,,,,,,,,,,,,,,,,,,,,,,,,991,2022-11-25_14h45.18.478,test3,2022.2.4,59.70967650599897,
1.4472400673955,148.319327731092,328.319327731092,low,82.9628064112068,maps/google_map_1.png,24.643478680114303,objects/1/1_97.jpg,0.0,indoors,LetterMail.jpg,old,0,80,80,80,0,0,0,0,,,,,,,,,,,,,,,,,530.7241147499999,528.674268583,528.674268583,528.674268583,528.674268583,528.674268583,right,1.2717004590000442,530.242591042,530.242591042,530.242591042,530.242591042,530.242591042,530.242591042,530.242591042,530.242591042,530.242591042,6,0.4601430419999133,531.203718125,531.203718125,531.203718125,531.203718125,88.5,['return'],[2.32838849999996],,,,,991,2022-11-25_14h45.18.478,test3,2022.2.4,59.70967650599897,
1.4472400673955,148.319327731092,328.319327731092,low,82.9628064112068,maps/google_map_1.png,24.643478680114303,objects/1/1_97.jpg,0.0,indoors,LetterMail.jpg,old,0,80,80,80,,,,,,,,,,,,,,,,,,,,,,,,,,,,,,,,,,,,,,,,,,,,,,,,,,,991,2022-11-25_14h45.18.478,test3,2022.2.4,59.70967650599897,
None,None,None,None,None,maps/google_map_1.png,None,objects/2/2_8.jpg,None,outdoors,Sign_OneWay.jpg,new,0,81,81,81,,,,,,,,,,,,,,,,,,,,,536.7073585420001,533.7915507499999,533.7915507499999,533.7915507499999,533.7915507499999,533.7915507499999,left,2.0774154169999974,536.1594230000001,536.1594230000001,536.1594230000001,536.1594230000001,536.1594230000001,536.1594230000001,536.1594230000001,536.1594230000001,536.1594230000001,2,0.5241195840000046,536.957530792,,,,,,,,,,,991,2022-11-25_14h45.18.478,test3,2022.2.4,59.70967650599897,
3.92754334511961,148.319327731092,328.319327731092,high,225.14579685399,maps/google_map_1.png,166.826469122898,objects/1/1_18.jpg,0.0,outdoors,Toy_SeeSaw.jpg,old,0,82,82,82,0,0,0,0,,,,,,,,,,,,,,,,,539.2744063329999,537.2086455419999,537.2086455419999,537.2086455419999,537.2086455419999,537.2086455419999,right,1.0369834589999982,538.5430859579999,538.5430859579999,538.5430859579999,538.5430859579999,538.5430859579999,538.5430859579999,538.5430859579999,538.5430859579999,538.5430859579999,5,0.7040028760001178,539.7525269170001,539.7525269170001,539.7525269170001,539.7525269170001,11.5,['return'],[2.670187626000029],,,,,991,2022-11-25_14h45.18.478,test3,2022.2.4,59.70967650599897,
3.92754334511961,148.319327731092,328.319327731092,high,225.14579685399,maps/google_map_1.png,166.826469122898,objects/1/1_18.jpg,0.0,outdoors,Toy_SeeSaw.jpg,old,0,82,82,82,,,,,,,,,,,,,,,,,,,,,,,,,,,,,,,,,,,,,,,,,,,,,,,,,,,991,2022-11-25_14h45.18.478,test3,2022.2.4,59.70967650599897,
None,None,None,None,None,maps/google_map_1.png,None,objects/2/2_120.jpg,None,indoors,Briefcase_Silver.jpg,new,0,83,83,83,,,,,,,,,,,,,,,,,,,,,544.9741597919999,542.69206175,542.69206175,542.69206175,542.69206175,542.69206175,left,1.4179479169998785,544.4103665,544.4103665,544.4103665,544.4103665,544.4103665,544.4103665,544.4103665,544.4103665,544.4103665,2,0.5314289589999817,545.224771292,,,,,,,,,,,991,2022-11-25_14h45.18.478,test3,2022.2.4,59.70967650599897,
None,None,None,None,None,maps/google_map_1.png,None,objects/2/2_69.jpg,None,outdoors,Statue_Head.jpg,new,0,84,84,84,,,,,,,,,,,,,,,,,,,,,547.091003,545.4753726249999,545.4753726249999,545.4753726249999,545.4753726249999,545.4753726249999,left,0.939601166999978,546.710441708,546.710441708,546.710441708,546.710441708,546.710441708,546.710441708,546.710441708,546.710441708,546.710441708,1,0.3483446670001058,547.341026417,,,,,,,,,,,991,2022-11-25_14h45.18.478,test3,2022.2.4,59.70967650599897,
5.93195336185991,71.8991596638655,251.89915966386602,low,340.048281890059,maps/google_map_1.png,1.85087777380689,objects/1/1_59.jpg,0.0,indoors,Candy_Toffee.jpg,old,0,85,85,85,0,0,0,0,,,,,,,,,,,,,,,,,549.4413341669999,547.591978292,547.591978292,547.591978292,547.591978292,547.591978292,right,1.0046589169998015,548.8935428749999,548.8935428749999,548.8935428749999,548.8935428749999,548.8935428749999,548.8935428749999,548.8935428749999,548.8935428749999,548.8935428749999,6,0.5291547919999857,549.920189875,549.920189875,549.920189875,549.920189875,345.0,['return'],[1.0959060420001379],,,,,991,2022-11-25_14h45.18.478,test3,2022.2.4,59.70967650599897,
5.93195336185991,71.8991596638655,251.89915966386602,low,340.048281890059,maps/google_map_1.png,1.85087777380689,objects/1/1_59.jpg,0.0,indoors,Candy_Toffee.jpg,old,0,85,85,85,,,,,,,,,,,,,,,,,,,,,,,,,,,,,,,,,,,,,,,,,,,,,,,,,,,991,2022-11-25_14h45.18.478,test3,2022.2.4,59.70967650599897,
3.9269260434692597,148.319327731092,328.319327731092,high,225.110410135181,maps/google_map_1.png,166.791082404088,objects/1/1_91.jpg,0.0,indoors,Abacus.jpg,old,0,86,86,86,0,0,0,0,,,,,,,,,,,,,,,,,553.725236042,551.276888333,551.276888333,551.276888333,551.276888333,551.276888333,right,1.5127830839998069,553.07741425,553.07741425,553.07741425,553.07741425,553.07741425,553.07741425,553.07741425,553.07741425,553.07741425,5,0.6290448749999769,554.199709167,554.199709167,554.199709167,554.199709167,224.0,['return'],[3.2120151669997767],,,,,991,2022-11-25_14h45.18.478,test3,2022.2.4,59.70967650599897,
3.9269260434692597,148.319327731092,328.319327731092,high,225.110410135181,maps/google_map_1.png,166.791082404088,objects/1/1_91.jpg,0.0,indoors,Abacus.jpg,old,0,86,86,86,,,,,,,,,,,,,,,,,,,,,,,,,,,,,,,,,,,,,,,,,,,,,,,,,,,991,2022-11-25_14h45.18.478,test3,2022.2.4,59.70967650599897,
None,None,None,None,None,maps/google_map_1.png,None,objects/2/2_89.jpg,None,outdoors,Bird_Duck.jpg,new,0,87,87,87,,,,,,,,,,,,,,,,,,,,,560.19208125,557.675539958,557.675539958,557.675539958,557.675539958,557.675539958,left,1.6375434579998682,559.6102551669999,559.6102551669999,559.6102551669999,559.6102551669999,559.6102551669999,559.6102551669999,559.6102551669999,559.6102551669999,559.6102551669999,2,0.5553492509999387,560.441581625,,,,,,,,,,,991,2022-11-25_14h45.18.478,test3,2022.2.4,59.70967650599897,
0.48747976771791396,71.8991596638655,251.89915966386602,low,27.944700060262605,maps/google_map_1.png,46.045540396397,objects/1/1_51.jpg,0.0,indoors,Toy_LambPlushie.jpg,old,0,88,88,88,0,0,0,0,,,,,,,,,,,,,,,,,562.741972042,560.692245167,560.692245167,560.692245167,560.692245167,560.692245167,right,1.1680159169999342,562.162463333,562.162463333,562.162463333,562.162463333,562.162463333,562.162463333,562.162463333,562.162463333,562.162463333,5,0.5609004169999707,563.2168455829999,563.2168455829999,563.2168455829999,563.2168455829999,351.0,['return'],[1.3314281249998885],,,,,991,2022-11-25_14h45.18.478,test3,2022.2.4,59.70967650599897,
0.48747976771791396,71.8991596638655,251.89915966386602,low,27.944700060262605,maps/google_map_1.png,46.045540396397,objects/1/1_51.jpg,0.0,indoors,Toy_LambPlushie.jpg,old,0,88,88,88,,,,,,,,,,,,,,,,,,,,,,,,,,,,,,,,,,,,,,,,,,,,,,,,,,,991,2022-11-25_14h45.18.478,test3,2022.2.4,59.70967650599897,
None,None,None,None,None,maps/google_map_1.png,None,objects/2/2_1.jpg,None,indoors,Sieve_SideView.jpg,new,0,89,89,89,,,,,,,,,,,,,,,,,,,,,567.358734125,564.809269292,564.809269292,564.809269292,564.809269292,564.809269292,left,1.478031542000167,566.576216292,566.576216292,566.576216292,566.576216292,566.576216292,566.576216292,566.576216292,566.576216292,566.576216292,3,0.7640315009999767,567.6078056669999,,,,,,,,,,,991,2022-11-25_14h45.18.478,test3,2022.2.4,59.70967650599897,
3.14457938999197,148.319327731092,328.319327731092,medium,180.26251280208803,maps/google_map_1.png,121.943185070995,objects/1/1_44.jpg,0.0,outdoors,Camel_Dromedary.jpg,old,0,90,90,90,0,0,0,0,,,,,,,,,,,,,,,,,569.6250996250001,567.859211833,567.859211833,567.859211833,567.859211833,567.859211833,right,0.999049583999863,569.145125542,569.145125542,569.145125542,569.145125542,569.145125542,569.145125542,569.145125542,569.145125542,569.145125542,6,0.4492696670000669,570.1038402080001,570.1038402080001,570.1038402080001,570.1038402080001,190.0,['return'],[1.9454528759998766],,,,,991,2022-11-25_14h45.18.478,test3,2022.2.4,59.70967650599897,
3.14457938999197,148.319327731092,328.319327731092,medium,180.26251280208803,maps/google_map_1.png,121.943185070995,objects/1/1_44.jpg,0.0,outdoors,Camel_Dromedary.jpg,old,0,90,90,90,,,,,,,,,,,,,,,,,,,,,,,,,,,,,,,,,,,,,,,,,,,,,,,,,,,991,2022-11-25_14h45.18.478,test3,2022.2.4,59.70967650599897,
None,None,None,None,None,maps/google_map_1.png,None,objects/2/2_68.jpg,None,indoors,KitchenTools.jpg,new,0,91,91,91,,,,,,,,,,,,,,,,,,,,,574.508519083,572.3092993749999,572.3092993749999,572.3092993749999,572.3092993749999,572.3092993749999,left,1.361172166999836,573.961261792,573.961261792,573.961261792,573.961261792,573.961261792,573.961261792,573.961261792,573.961261792,573.961261792,2,0.5264483340000652,574.7582607499999,,,,,,,,,,,991,2022-11-25_14h45.18.478,test3,2022.2.4,59.70967650599897,
None,None,None,None,None,maps/google_map_1.png,None,objects/2/2_28.jpg,None,outdoors,LawnMower.jpg,new,0,92,92,92,,,,,,,,,,,,,,,,,,,,,576.6920085419999,575.0097081249999,575.0097081249999,575.0097081249999,575.0097081249999,575.0097081249999,left,1.0146049579999499,576.310685917,576.310685917,576.310685917,576.310685917,576.310685917,576.310685917,576.310685917,576.310685917,576.310685917,2,0.35283995899987985,576.9418499169999,,,,,,,,,,,991,2022-11-25_14h45.18.478,test3,2022.2.4,59.70967650599897,
None,None,None,None,None,maps/google_map_1.png,None,objects/2/2_101.jpg,None,outdoors,PoliceTape.jpg,new,0,93,93,93,,,,,,,,,,,,,,,,,,,,,578.492042333,577.192400292,577.192400292,577.192400292,577.192400292,577.192400292,left,0.8954342509999833,578.3776332919999,578.3776332919999,578.3776332919999,578.3776332919999,578.3776332919999,578.3776332919999,578.3776332919999,578.3776332919999,578.3776332919999,1,0.08315087599987692,578.7418082500001,,,,,,,,,,,991,2022-11-25_14h45.18.478,test3,2022.2.4,59.70967650599897,
2.1151913542011003,71.8991596638655,251.89915966386602,high,121.25300756566799,maps/google_map_1.png,139.353847901802,objects/1/1_50.jpg,0.0,outdoors,GatedEntrance.jpg,old,0,94,94,94,0,0,0,0,,,,,,,,,,,,,,,,,581.191859,578.993190917,578.993190917,578.993190917,578.993190917,578.993190917,right,1.0487806670001873,580.3317115,580.3317115,580.3317115,580.3317115,580.3317115,580.3317115,580.3317115,580.3317115,580.3317115,4,0.8322824999999057,581.671740583,581.671740583,581.671740583,581.671740583,88.5,['return'],[2.0041133749999744],,,,,991,2022-11-25_14h45.18.478,test3,2022.2.4,59.70967650599897,
2.1151913542011003,71.8991596638655,251.89915966386602,high,121.25300756566799,maps/google_map_1.png,139.353847901802,objects/1/1_50.jpg,0.0,outdoors,GatedEntrance.jpg,old,0,94,94,94,,,,,,,,,,,,,,,,,,,,,,,,,,,,,,,,,,,,,,,,,,,,,,,,,,,991,2022-11-25_14h45.18.478,test3,2022.2.4,59.70967650599897,
1.10918743929277,148.319327731092,328.319327731092,low,63.5839933352542,maps/google_map_1.png,5.26466560416175,objects/1/1_17.jpg,0.0,indoors,WashingMachine.jpg,old,0,95,95,95,0,0,0,0,,,,,,,,,,,,,,,,,587.174979833,583.9420399579999,583.9420399579999,583.9420399579999,583.9420399579999,583.9420399579999,right,1.9545749590000696,586.21049625,586.21049625,586.21049625,586.21049625,586.21049625,586.21049625,586.21049625,586.21049625,586.21049625,5,0.9353753750000351,587.6522815829999,587.6522815829999,587.6522815829999,587.6522815829999,9.5,['return'],[1.4359422920000497],,,,,991,2022-11-25_14h45.18.478,test3,2022.2.4,59.70967650599897,
1.10918743929277,148.319327731092,328.319327731092,low,63.5839933352542,maps/google_map_1.png,5.26466560416175,objects/1/1_17.jpg,0.0,indoors,WashingMachine.jpg,old,0,95,95,95,,,,,,,,,,,,,,,,,,,,,,,,,,,,,,,,,,,,,,,,,,,,,,,,,,,991,2022-11-25_14h45.18.478,test3,2022.2.4,59.70967650599897,
None,None,None,None,None,maps/google_map_1.png,None,objects/2/2_58.jpg,None,indoors,Fryingpan.jpg,new,0,96,96,96,,,,,,,,,,,,,,,,,,,,,591.4591742499999,589.3594613749999,589.3594613749999,589.3594613749999,589.3594613749999,589.3594613749999,left,1.0905060839999123,590.7446009999999,590.7446009999999,590.7446009999999,590.7446009999999,590.7446009999999,590.7446009999999,590.7446009999999,590.7446009999999,590.7446009999999,3,0.6955695840000544,591.708901625,,,,,,,,,,,991,2022-11-25_14h45.18.478,test3,2022.2.4,59.70967650599897,
None,None,None,None,None,maps/google_map_1.png,None,objects/2/2_22.jpg,None,outdoors,Hippopotamus.jpg,new,0,97,97,97,,,,,,,,,,,,,,,,,,,,,593.7423348749999,591.959633958,591.959633958,591.959633958,591.959633958,591.959633958,left,1.17748462499992,593.4281113330001,593.4281113330001,593.4281113330001,593.4281113330001,593.4281113330001,593.4281113330001,593.4281113330001,593.4281113330001,593.4281113330001,2,0.29614649999996345,593.9923402499999,,,,,,,,,,,991,2022-11-25_14h45.18.478,test3,2022.2.4,59.70967650599897,
None,None,None,None,None,maps/google_map_1.png,None,objects/2/2_45.jpg,None,indoors,Crib_Basket.jpg,new,0,98,98,98,,,,,,,,,,,,,,,,,,,,,596.4922261669999,594.2446513749999,594.2446513749999,594.2446513749999,594.2446513749999,594.2446513749999,left,0.8792383329999893,595.411662833,595.411662833,595.411662833,595.411662833,595.411662833,595.411662833,595.411662833,595.411662833,595.411662833,2,1.0539577920000056,596.742242667,,,,,,,,,,,991,2022-11-25_14h45.18.478,test3,2022.2.4,59.70967650599897,
0.789928852218592,71.8991596638655,251.89915966386602,medium,45.282545668581704,maps/google_map_1.png,63.38338600471621,objects/1/1_36.jpg,0.0,outdoors,Hay.jpg,old,0,99,99,99,0,0,0,0,,,,,,,,,,,,,,,,,598.9088616669999,596.9947374169999,596.9947374169999,596.9947374169999,596.9947374169999,596.9947374169999,right,1.0544910830000163,598.346979375,598.346979375,598.346979375,598.346979375,598.346979375,598.346979375,598.346979375,598.346979375,598.346979375,5,0.5323483339999484,599.3836282079999,599.3836282079999,599.3836282079999,599.3836282079999,10.5,['return'],[1.416408499999875],,,,,991,2022-11-25_14h45.18.478,test3,2022.2.4,59.70967650599897,
0.789928852218592,71.8991596638655,251.89915966386602,medium,45.282545668581704,maps/google_map_1.png,63.38338600471621,objects/1/1_36.jpg,0.0,outdoors,Hay.jpg,old,0,99,99,99,,,,,,,,,,,,,,,,,,,,,,,,,,,,,,,,,,,,,,,,,,,,,,,,,,,991,2022-11-25_14h45.18.478,test3,2022.2.4,59.70967650599897,
None,None,None,None,None,maps/google_map_1.png,None,objects/2/2_72.jpg,None,outdoors,PirateFlag.jpg,new,0,100,100,100,,,,,,,,,,,,,,,,,,,,,603.3925295829999,601.0597037499999,601.0597037499999,601.0597037499999,601.0597037499999,601.0597037499999,left,0.8773117499998762,602.228117917,602.228117917,602.228117917,602.228117917,602.228117917,602.228117917,602.228117917,602.228117917,602.228117917,1,1.1459265419999838,603.642209375,,,,,,,,,,,991,2022-11-25_14h45.18.478,test3,2022.2.4,59.70967650599897,
None,None,None,None,None,maps/google_map_1.png,None,objects/2/2_70.jpg,None,outdoors,Paratrooper.jpg,new,0,101,101,101,,,,,,,,,,,,,,,,,,,,,606.041954583,603.892998667,603.892998667,603.892998667,603.892998667,603.892998667,left,1.4987547499998755,605.677809083,605.677809083,605.677809083,605.677809083,605.677809083,605.677809083,605.677809083,605.677809083,605.677809083,1,0.33604829199987307,606.291996333,,,,,,,,,,,991,2022-11-25_14h45.18.478,test3,2022.2.4,59.70967650599897,
None,None,None,None,None,maps/google_map_1.png,None,objects/2/2_91.jpg,None,outdoors,PortaPotty.jpg,new,0,102,102,102,,,,,,,,,,,,,,,,,,,,,608.3425964999999,606.543328125,606.543328125,606.543328125,606.543328125,606.543328125,left,1.098571042000117,607.9289154579999,607.9289154579999,607.9289154579999,607.9289154579999,607.9289154579999,607.9289154579999,607.9289154579999,607.9289154579999,607.9289154579999,2,0.3965757919999078,608.5919456669999,,,,,,,,,,,991,2022-11-25_14h45.18.478,test3,2022.2.4,59.70967650599897,
5.84664382643996,71.8991596638655,251.89915966386602,low,335.157926356431,maps/google_map_1.png,6.741233307434911,objects/1/1_100.jpg,0.0,indoors,Chair_BeanBag.jpg,old,0,103,103,103,0,0,0,0,,,,,,,,,,,,,,,,,610.5260243329999,608.843643958,608.843643958,608.843643958,608.843643958,608.843643958,right,0.7932217080000328,609.930201833,609.930201833,609.930201833,609.930201833,609.930201833,609.930201833,609.930201833,609.930201833,609.930201833,6,0.5774931669999432,611.000532083,611.000532083,611.000532083,611.000532083,18.0,['return'],[2.4014736670000048],,,,,991,2022-11-25_14h45.18.478,test3,2022.2.4,59.70967650599897,
5.84664382643996,71.8991596638655,251.89915966386602,low,335.157926356431,maps/google_map_1.png,6.741233307434911,objects/1/1_100.jpg,0.0,indoors,Chair_BeanBag.jpg,old,0,103,103,103,,,,,,,,,,,,,,,,,,,,,,,,,,,,,,,,,,,,,,,,,,,,,,,,,,,991,2022-11-25_14h45.18.478,test3,2022.2.4,59.70967650599897,
3.24686821143275,71.8991596638655,251.89915966386602,high,186.12620320315102,maps/google_map_1.png,155.772956460714,objects/1/1_137.jpg,0.0,indoors,CigarCase.jpg,old,0,104,104,104,0,0,0,0,,,,,,,,,,,,,,,,,617.7922885830001,613.6766896669999,613.6766896669999,613.6766896669999,613.6766896669999,613.6766896669999,right,2.6187104169999884,616.594861708,616.594861708,616.594861708,616.594861708,616.594861708,616.594861708,616.594861708,616.594861708,616.594861708,4,1.1730030420000048,618.2683219169999,618.2683219169999,618.2683219169999,618.2683219169999,134.5,['return'],[1.5062602919998653],,,,,991,2022-11-25_14h45.18.478,test3,2022.2.4,59.70967650599897,
3.24686821143275,71.8991596638655,251.89915966386602,high,186.12620320315102,maps/google_map_1.png,155.772956460714,objects/1/1_137.jpg,0.0,indoors,CigarCase.jpg,old,0,104,104,104,,,,,,,,,,,,,,,,,,,,,,,,,,,,,,,,,,,,,,,,,,,,,,,,,,,991,2022-11-25_14h45.18.478,test3,2022.2.4,59.70967650599897,
None,None,None,None,None,maps/google_map_1.png,None,objects/2/2_5.jpg,None,indoors,Glass_Beer.jpg,new,0,105,105,105,,,,,,,,,,,,,,,,,,,,,622.4596617499999,620.042924958,620.042924958,620.042924958,620.042924958,620.042924958,left,1.414485792000164,621.7444507079999,621.7444507079999,621.7444507079999,621.7444507079999,621.7444507079999,621.7444507079999,621.7444507079999,621.7444507079999,621.7444507079999,2,0.6931419999999662,622.709413667,,,,,,,,,,,991,2022-11-25_14h45.18.478,test3,2022.2.4,59.70967650599897,
2.3257941663896604,148.319327731092,328.319327731092,medium,133.325780238898,maps/google_map_1.png,75.0064525078051,objects/1/1_23.jpg,0.0,indoors,HairScrunchie.jpg,old,0,106,106,106,0,0,0,0,,,,,,,,,,,,,,,,,625.159007167,622.9619606670001,622.9619606670001,622.9619606670001,622.9619606670001,622.9619606670001,right,0.9618483749999314,624.213503958,624.213503958,624.213503958,624.213503958,624.213503958,624.213503958,624.213503958,624.213503958,624.213503958,5,0.9135727919998544,625.637138667,625.637138667,625.637138667,625.637138667,285.5,['return'],[1.1078432080001903],,,,,991,2022-11-25_14h45.18.478,test3,2022.2.4,59.70967650599897,
2.3257941663896604,148.319327731092,328.319327731092,medium,133.325780238898,maps/google_map_1.png,75.0064525078051,objects/1/1_23.jpg,0.0,indoors,HairScrunchie.jpg,old,0,106,106,106,,,,,,,,,,,,,,,,,,,,,,,,,,,,,,,,,,,,,,,,,,,,,,,,,,,991,2022-11-25_14h45.18.478,test3,2022.2.4,59.70967650599897,
None,None,None,None,None,maps/google_map_1.png,None,objects/2/2_82.jpg,None,indoors,Drum_Conga.jpg,new,0,107,107,107,,,,,,,,,,,,,,,,,,,,,629.3598374169999,627.01047675,627.01047675,627.01047675,627.01047675,627.01047675,left,1.131504333999942,628.4284332919999,628.4284332919999,628.4284332919999,628.4284332919999,628.4284332919999,628.4284332919999,628.4284332919999,628.4284332919999,628.4284332919999,3,0.9133185419999563,629.6094047500001,,,,,,,,,,,991,2022-11-25_14h45.18.478,test3,2022.2.4,59.70967650599897,
0.691657706209344,148.319327731092,328.319327731092,low,39.6491678718732,maps/google_map_1.png,18.670159859219197,objects/1/1_26.jpg,0.0,indoors,JuiceBox.jpg,old,0,108,108,108,0,0,0,0,,,,,,,,,,,,,,,,,631.675976583,629.8604351249999,629.8604351249999,629.8604351249999,629.8604351249999,629.8604351249999,left,0.9169637920000469,631.0787383750001,631.0787383750001,631.0787383750001,631.0787383750001,631.0787383750001,631.0787383750001,631.0787383750001,631.0787383750001,631.0787383750001,2,0.5764927920000673,632.1555798750001,632.1555798750001,632.1555798750001,632.1555798750001,4.5,['return'],[2.3911515830001235],,,,,991,2022-11-25_14h45.18.478,test3,2022.2.4,59.70967650599897,
0.691657706209344,148.319327731092,328.319327731092,low,39.6491678718732,maps/google_map_1.png,18.670159859219197,objects/1/1_26.jpg,0.0,indoors,JuiceBox.jpg,old,0,108,108,108,,,,,,,,,,,,,,,,,,,,,,,,,,,,,,,,,,,,,,,,,,,,,,,,,,,991,2022-11-25_14h45.18.478,test3,2022.2.4,59.70967650599897,
2.23671523458584,148.319327731092,328.319327731092,medium,128.219344657787,maps/google_map_1.png,69.9000169266947,objects/1/1_78.jpg,0.0,indoors,Blueprints.jpg,old,0,109,109,109,0,0,0,0,,,,,,,,,,,,,,,,,640.575830167,634.8103093749999,634.8103093749999,634.8103093749999,634.8103093749999,634.8103093749999,right,1.722089125000025,636.827788542,636.827788542,636.827788542,636.827788542,636.827788542,636.827788542,636.827788542,636.827788542,636.827788542,6,3.723264166999911,641.056409583,641.056409583,641.056409583,641.056409583,214.5,['return'],[2.1426741670001093],,,,,991,2022-11-25_14h45.18.478,test3,2022.2.4,59.70967650599897,
2.23671523458584,148.319327731092,328.319327731092,medium,128.219344657787,maps/google_map_1.png,69.9000169266947,objects/1/1_78.jpg,0.0,indoors,Blueprints.jpg,old,0,109,109,109,,,,,,,,,,,,,,,,,,,,,,,,,,,,,,,,,,,,,,,,,,,,,,,,,,,991,2022-11-25_14h45.18.478,test3,2022.2.4,59.70967650599897,
None,None,None,None,None,maps/google_map_1.png,None,objects/2/2_102.jpg,None,outdoors,Golf_Club.jpg,new,0,110,110,110,,,,,,,,,,,,,,,,,,,,,646.0934225829999,643.4596207919999,643.4596207919999,643.4596207919999,643.4596207919999,643.4596207919999,left,1.2248520839999628,644.977044208,644.977044208,644.977044208,644.977044208,644.977044208,644.977044208,644.977044208,644.977044208,644.977044208,3,1.0955744589999767,646.3429530000001,,,,,,,,,,,991,2022-11-25_14h45.18.478,test3,2022.2.4,59.70967650599897,
None,None,None,None,None,maps/google_map_1.png,None,objects/2/2_36.jpg,None,indoors,Blanket.jpg,new,0,111,111,111,,,,,,,,,,,,,,,,,,,,,649.593310125,646.5941665,646.5941665,646.5941665,646.5941665,646.5941665,left,1.3518535829999792,648.2472454169999,648.2472454169999,648.2472454169999,648.2472454169999,648.2472454169999,648.2472454169999,648.2472454169999,648.2472454169999,648.2472454169999,3,1.3266708330000938,649.8427570829999,,,,,,,,,,,991,2022-11-25_14h45.18.478,test3,2022.2.4,59.70967650599897,
None,None,None,None,None,maps/google_map_1.png,None,objects/2/2_117.jpg,None,outdoors,BicycleWheelRusty.jpg,new,0,112,112,112,,,,,,,,,,,,,,,,,,,,,652.1427914169999,650.094495542,650.094495542,650.094495542,650.094495542,650.094495542,left,0.9347164170000042,651.3285096669999,651.3285096669999,651.3285096669999,651.3285096669999,651.3285096669999,651.3285096669999,651.3285096669999,651.3285096669999,651.3285096669999,3,0.7909638339998537,652.392495417,,,,,,,,,,,991,2022-11-25_14h45.18.478,test3,2022.2.4,59.70967650599897,
None,None,None,None,None,maps/google_map_1.png,None,objects/2/2_55.jpg,None,indoors,Desk_School.jpg,new,0,113,113,113,,,,,,,,,,,,,,,,,,,,,654.2269323749999,652.6446490000001,652.6446490000001,652.6446490000001,652.6446490000001,652.6446490000001,left,0.780942624999966,653.7135922079999,653.7135922079999,653.7135922079999,653.7135922079999,653.7135922079999,653.7135922079999,653.7135922079999,653.7135922079999,653.7135922079999,1,0.4959230419998448,654.476134583,,,,,,,,,,,991,2022-11-25_14h45.18.478,test3,2022.2.4,59.70967650599897,
None,None,None,None,None,maps/google_map_1.png,None,objects/2/2_4.jpg,None,indoors,Boardgame_Chess.jpg,new,0,114,114,114,,,,,,,,,,,,,,,,,,,,,657.0927562080001,654.727268292,654.727268292,654.727268292,654.727268292,654.727268292,right,0.8135760839999193,655.829433292,655.829433292,655.829433292,655.829433292,655.829433292,655.829433292,655.829433292,655.829433292,655.829433292,4,1.2311455829998295,657.3427717079999,,,,,,,,,,,991,2022-11-25_14h45.18.478,test3,2022.2.4,59.70967650599897,
2.01725210084034,328.319327731092,356.98319327731105,singletons,115.638655462185,maps/google_map_1.png,None,objects/1/1_31.jpg,0.0,indoors,Shirt_Tshirt.jpg,old,0,115,115,115,0,0,0,0,,,,,,,,,,,,,,,,,661.0262183749999,657.5942888750001,657.5942888750001,657.5942888750001,657.5942888750001,657.5942888750001,right,2.1992022509999742,660.0790624169999,660.0790624169999,660.0790624169999,660.0790624169999,660.0790624169999,660.0790624169999,660.0790624169999,660.0790624169999,660.0790624169999,6,0.9184584579999182,661.50486725,661.50486725,661.50486725,661.50486725,334.5,['return'],[2.0853634169999395],,,,,991,2022-11-25_14h45.18.478,test3,2022.2.4,59.70967650599897,
2.01725210084034,328.319327731092,356.98319327731105,singletons,115.638655462185,maps/google_map_1.png,None,objects/1/1_31.jpg,0.0,indoors,Shirt_Tshirt.jpg,old,0,115,115,115,,,,,,,,,,,,,,,,,,,,,,,,,,,,,,,,,,,,,,,,,,,,,,,,,,,991,2022-11-25_14h45.18.478,test3,2022.2.4,59.70967650599897,
3.46330671199857,148.319327731092,328.319327731092,high,198.533505783358,maps/google_map_1.png,140.214178052265,objects/1/1_142.jpg,0.0,indoors,Ball_Disco.jpg,old,0,116,116,116,0,0,0,0,,,,,,,,,,,,,,,,,666.709943542,663.8606009580001,663.8606009580001,663.8606009580001,663.8606009580001,663.8606009580001,right,1.310782124999946,665.4618997079999,665.4618997079999,665.4618997079999,665.4618997079999,665.4618997079999,665.4618997079999,665.4618997079999,665.4618997079999,665.4618997079999,6,1.2296352920001254,667.188352875,667.188352875,667.188352875,667.188352875,318,['return'],[1.1667092920000641],,,,,991,2022-11-25_14h45.18.478,test3,2022.2.4,59.70967650599897,
3.46330671199857,148.319327731092,328.319327731092,high,198.533505783358,maps/google_map_1.png,140.214178052265,objects/1/1_142.jpg,0.0,indoors,Ball_Disco.jpg,old,0,116,116,116,,,,,,,,,,,,,,,,,,,,,,,,,,,,,,,,,,,,,,,,,,,,,,,,,,,991,2022-11-25_14h45.18.478,test3,2022.2.4,59.70967650599897,
0.630978256004724,148.319327731092,328.319327731092,low,36.1707280512262,maps/google_map_1.png,22.148599679866198,objects/1/1_12.jpg,0.0,outdoors,Van.jpg,old,0,117,117,117,0,0,0,0,,,,,,,,,,,,,,,,,672.510636792,668.627310375,668.627310375,668.627310375,668.627310375,668.627310375,right,1.9576737090000051,670.877668292,670.877668292,670.877668292,670.877668292,670.877668292,670.877668292,670.877668292,670.877668292,670.877668292,6,1.6089648339999485,672.9878162079999,672.9878162079999,672.9878162079999,672.9878162079999,45.5,['return'],[3.4625224170000592],,,,,991,2022-11-25_14h45.18.478,test3,2022.2.4,59.70967650599897,
0.630978256004724,148.319327731092,328.319327731092,low,36.1707280512262,maps/google_map_1.png,22.148599679866198,objects/1/1_12.jpg,0.0,outdoors,Van.jpg,old,0,117,117,117,,,,,,,,,,,,,,,,,,,,,,,,,,,,,,,,,,,,,,,,,,,,,,,,,,,991,2022-11-25_14h45.18.478,test3,2022.2.4,59.70967650599897,
5.70597886186679,71.8991596638655,251.89915966386602,low,327.094329661153,maps/google_map_1.png,14.8048300027121,objects/1/1_83.jpg,0.0,indoors,Chair_Office.jpg,old,0,118,118,118,0,0,0,0,,,,,,,,,,,,,,,,,679.377136417,676.710599042,676.710599042,676.710599042,676.710599042,676.710599042,right,1.4173044169998548,678.4282654169999,678.4282654169999,678.4282654169999,678.4282654169999,678.4282654169999,678.4282654169999,678.4282654169999,678.4282654169999,678.4282654169999,4,0.9299166670001568,679.855288917,679.855288917,679.855288917,679.855288917,235.5,['return'],[1.831278166999823],,,,,991,2022-11-25_14h45.18.478,test3,2022.2.4,59.70967650599897,
5.70597886186679,71.8991596638655,251.89915966386602,low,327.094329661153,maps/google_map_1.png,14.8048300027121,objects/1/1_83.jpg,0.0,indoors,Chair_Office.jpg,old,0,118,118,118,,,,,,,,,,,,,,,,,,,,,,,,,,,,,,,,,,,,,,,,,,,,,,,,,,,991,2022-11-25_14h45.18.478,test3,2022.2.4,59.70967650599897,
None,None,None,None,None,maps/google_map_1.png,None,objects/2/2_37.jpg,None,indoors,Bowl_Sugar.jpg,new,0,119,119,119,,,,,,,,,,,,,,,,,,,,,684.6601826250001,681.960234292,681.960234292,681.960234292,681.960234292,681.960234292,left,1.5989360419999912,683.8450245419999,683.8450245419999,683.8450245419999,683.8450245419999,683.8450245419999,683.8450245419999,683.8450245419999,683.8450245419999,683.8450245419999,3,0.7833210000000008,684.9103729999999,,,,,,,,,,,991,2022-11-25_14h45.18.478,test3,2022.2.4,59.70967650599897,
5.4315788274337,71.8991596638655,251.89915966386602,low,311.36439138155,maps/google_map_1.png,30.534768282315998,objects/1/1_108.jpg,0.0,outdoors,Ambulance.jpg,old,0,120,120,120,0,0,0,0,,,,,,,,,,,,,,,,,687.6606482919999,685.1598509170001,685.1598509170001,685.1598509170001,685.1598509170001,685.1598509170001,right,1.2696338329998298,686.729480125,686.729480125,686.729480125,686.729480125,686.729480125,686.729480125,686.729480125,686.729480125,686.729480125,5,0.914578416999916,688.141160917,688.141160917,688.141160917,688.141160917,292.5,['return'],[1.7426249169999437],,,,,991,2022-11-25_14h45.18.478,test3,2022.2.4,59.70967650599897,
5.4315788274337,71.8991596638655,251.89915966386602,low,311.36439138155,maps/google_map_1.png,30.534768282315998,objects/1/1_108.jpg,0.0,outdoors,Ambulance.jpg,old,0,120,120,120,,,,,,,,,,,,,,,,,,,,,,,,,,,,,,,,,,,,,,,,,,,,,,,,,,,991,2022-11-25_14h45.18.478,test3,2022.2.4,59.70967650599897,
None,None,None,None,None,maps/google_map_1.png,None,objects/2/2_118.jpg,None,outdoors,Teardrop.jpg,new,0,121,121,121,,,,,,,,,,,,,,,,,,,,,692.5107371249999,690.144061708,690.144061708,690.144061708,690.144061708,690.144061708,left,1.5509122090001028,692.01236,692.01236,692.01236,692.01236,692.01236,692.01236,692.01236,692.01236,692.01236,2,0.46683375000009164,692.7605175419999,,,,,,,,,,,991,2022-11-25_14h45.18.478,test3,2022.2.4,59.70967650599897,
None,None,None,None,None,maps/google_map_1.png,None,objects/2/2_114.jpg,None,indoors,Piano_Keyboard.jpg,new,0,122,122,122,,,,,,,,,,,,,,,,,,,,,694.5433439579999,693.011317208,693.011317208,693.011317208,693.011317208,693.011317208,left,0.8303684169999315,694.129301833,694.129301833,694.129301833,694.129301833,694.129301833,694.129301833,694.129301833,694.129301833,694.129301833,2,0.3834829999999556,694.7942559579999,,,,,,,,,,,991,2022-11-25_14h45.18.478,test3,2022.2.4,59.70967650599897,
1.2275583630745,148.319327731092,328.319327731092,low,70.36958769216851,maps/google_map_1.png,12.0502599610761,objects/1/1_122.jpg,0.0,indoors,Egg_Cup.jpg,old,0,123,123,123,0,0,0,0,,,,,,,,,,,,,,,,,696.960624,695.044594125,695.044594125,695.044594125,695.044594125,695.044594125,right,1.1528801250000242,696.4960021249999,696.4960021249999,696.4960021249999,696.4960021249999,696.4960021249999,696.4960021249999,696.4960021249999,696.4960021249999,696.4960021249999,5,0.4450824580000017,697.440326083,697.440326083,697.440326083,697.440326083,310.0,['return'],[1.610883501000103],,,,,991,2022-11-25_14h45.18.478,test3,2022.2.4,59.70967650599897,
1.2275583630745,148.319327731092,328.319327731092,low,70.36958769216851,maps/google_map_1.png,12.0502599610761,objects/1/1_122.jpg,0.0,indoors,Egg_Cup.jpg,old,0,123,123,123,,,,,,,,,,,,,,,,,,,,,,,,,,,,,,,,,,,,,,,,,,,,,,,,,,,991,2022-11-25_14h45.18.478,test3,2022.2.4,59.70967650599897,
1.61091051948466,148.319327731092,328.319327731092,low,92.34518901504428,maps/google_map_1.png,34.0258612839519,objects/1/1_115.jpg,0.0,indoors,Bottle_CosmeticSpray.jpg,old,0,124,124,124,0,0,0,0,,,,,,,,,,,,,,,,,702.6939381669999,699.3105822499999,699.3105822499999,699.3105822499999,699.3105822499999,699.3105822499999,right,2.1014591669999163,701.711515167,701.711515167,701.711515167,701.711515167,701.711515167,701.711515167,701.711515167,701.711515167,701.711515167,4,0.9512365419999469,703.1716132920001,703.1716132920001,703.1716132920001,703.1716132920001,115.5,['return'],[1.0380630000000792],,,,,991,2022-11-25_14h45.18.478,test3,2022.2.4,59.70967650599897,
1.61091051948466,148.319327731092,328.319327731092,low,92.34518901504428,maps/google_map_1.png,34.0258612839519,objects/1/1_115.jpg,0.0,indoors,Bottle_CosmeticSpray.jpg,old,0,124,124,124,,,,,,,,,,,,,,,,,,,,,,,,,,,,,,,,,,,,,,,,,,,,,,,,,,,991,2022-11-25_14h45.18.478,test3,2022.2.4,59.70967650599897,
None,None,None,None,None,maps/google_map_1.png,None,objects/2/2_103.jpg,None,outdoors,Hedgehog.jpg,new,0,125,125,125,,,,,,,,,,,,,,,,,,,,,707.577629875,704.4959160419999,704.4959160419999,704.4959160419999,704.4959160419999,704.4959160419999,left,1.3667604169999095,706.1645202499999,706.1645202499999,706.1645202499999,706.1645202499999,706.1645202499999,706.1645202499999,706.1645202499999,706.1645202499999,706.1645202499999,2,1.3818464170000198,707.827255333,,,,,,,,,,,991,2022-11-25_14h45.18.478,test3,2022.2.4,59.70967650599897,
2.50659176219515,148.319327731092,328.319327731092,medium,143.68997362902098,maps/google_map_1.png,85.3706458979286,objects/1/1_131.jpg,0.0,outdoors,Cart_Wooden.jpg,old,0,126,126,126,0,0,0,0,,,,,,,,,,,,,,,,,711.545947625,708.078431833,708.078431833,708.078431833,708.078431833,708.078431833,right,1.0436897920000092,709.4128484999999,709.4128484999999,709.4128484999999,709.4128484999999,709.4128484999999,709.4128484999999,709.4128484999999,709.4128484999999,709.4128484999999,6,2.1157493330000534,709.4128484999999,712.039119583,712.039119583,712.039119583,148.0,['return'],[4.530480709000017],,,,,991,2022-11-25_14h45.18.478,test3,2022.2.4,59.70967650599897,
2.50659176219515,148.319327731092,328.319327731092,medium,143.68997362902098,maps/google_map_1.png,85.3706458979286,objects/1/1_131.jpg,0.0,outdoors,Cart_Wooden.jpg,old,0,126,126,126,,,,,,,,,,,,,,,,,,,,,,,,,,,,,,,,,,,,,,,,,,,,,,,,,,,991,2022-11-25_14h45.18.478,test3,2022.2.4,59.70967650599897,
None,None,None,None,None,maps/google_map_1.png,None,objects/2/2_31.jpg,None,indoors,Plate_Decorative.jpg,new,0,127,127,127,,,,,,,,,,,,,,,,,,,,,718.860869417,716.8466967080001,716.8466967080001,716.8466967080001,716.8466967080001,716.8466967080001,left,1.321679126000049,718.4639897919999,718.4639897919999,718.4639897919999,718.4639897919999,718.4639897919999,718.4639897919999,718.4639897919999,718.4639897919999,718.4639897919999,2,0.36595779199990375,719.111324833,,,,,,,,,,,991,2022-11-25_14h45.18.478,test3,2022.2.4,59.70967650599897,
None,None,None,None,None,maps/google_map_1.png,None,objects/2/2_85.jpg,None,outdoors,Mask_Gas.jpg,new,0,128,128,128,,,,,,,,,,,,,,,,,,,,,721.1771552499999,719.36481,719.36481,719.36481,719.36481,719.36481,left,1.4326982090000229,721.098958542,721.098958542,721.098958542,721.098958542,721.098958542,721.098958542,721.098958542,721.098958542,721.098958542,1,0.05154941700004656,721.431731167,,,,,,,,,,,991,2022-11-25_14h45.18.478,test3,2022.2.4,59.70967650599897,
None,None,None,None,None,maps/google_map_1.png,None,objects/2/2_32.jpg,None,outdoors,Tombstone.jpg,new,0,129,129,129,,,,,,,,,,,,,,,,,,,,,723.1937594999999,721.6954398329999,721.6954398329999,721.6954398329999,721.6954398329999,721.6954398329999,left,0.9063449579999769,722.8986239169999,722.8986239169999,722.8986239169999,722.8986239169999,722.8986239169999,722.8986239169999,722.8986239169999,722.8986239169999,722.8986239169999,1,0.2745367500000384,723.4444666249999,,,,,,,,,,,991,2022-11-25_14h45.18.478,test3,2022.2.4,59.70967650599897,
None,None,None,None,None,maps/google_map_1.png,None,objects/2/2_98.jpg,None,outdoors,Chinchilla.jpg,new,0,130,130,130,,,,,,,,,,,,,,,,,,,,,725.3279668749999,723.6957500419999,723.6957500419999,723.6957500419999,723.6957500419999,723.6957500419999,left,1.115852751000034,725.114317542,725.114317542,725.114317542,725.114317542,725.114317542,725.114317542,725.114317542,725.114317542,725.114317542,1,0.1950242090000529,725.5772355419999,,,,,,,,,,,991,2022-11-25_14h45.18.478,test3,2022.2.4,59.70967650599897,
None,None,None,None,None,maps/google_map_1.png,None,objects/2/2_65.jpg,None,indoors,Pacifier.jpg,new,0,131,131,131,,,,,,,,,,,,,,,,,,,,,727.660314875,725.8288123749999,725.8288123749999,725.8288123749999,725.8288123749999,725.8288123749999,left,1.2509211249999908,727.380683417,727.380683417,727.380683417,727.380683417,727.380683417,727.380683417,727.380683417,727.380683417,727.380683417,2,0.250323332999983,727.9111116669999,,,,,,,,,,,991,2022-11-25_14h45.18.478,test3,2022.2.4,59.70967650599897,
None,None,None,None,None,maps/google_map_1.png,None,objects/2/2_84.jpg,None,outdoors,Sign_Taxi.jpg,new,0,132,132,132,,,,,,,,,,,,,,,,,,,,,729.7944808749999,728.1620687919999,728.1620687919999,728.1620687919999,728.1620687919999,728.1620687919999,left,0.6928900839999415,729.146930875,729.146930875,729.146930875,729.146930875,729.146930875,729.146930875,729.146930875,729.146930875,729.146930875,2,0.6299255419997962,730.044371708,,,,,,,,,,,991,2022-11-25_14h45.18.478,test3,2022.2.4,59.70967650599897,
6.0361459701246,71.8991596638655,251.89915966386602,low,346.021106567652,maps/google_map_1.png,4.1219469037868794,objects/1/1_133.jpg,0.0,outdoors,Bird_CanadianGoose.jpg,old,0,133,133,133,0,0,0,0,,,,,,,,,,,,,,,,,732.0943938749999,730.295134833,730.295134833,730.295134833,730.295134833,730.295134833,right,1.214176416999976,731.796367417,731.796367417,731.796367417,731.796367417,731.796367417,731.796367417,731.796367417,731.796367417,731.796367417,4,0.27882291699995676,732.5762489169999,732.5762489169999,732.5762489169999,732.5762489169999,324.0,['return'],[1.9423724170000014],,,,,991,2022-11-25_14h45.18.478,test3,2022.2.4,59.70967650599897,
6.0361459701246,71.8991596638655,251.89915966386602,low,346.021106567652,maps/google_map_1.png,4.1219469037868794,objects/1/1_133.jpg,0.0,outdoors,Bird_CanadianGoose.jpg,old,0,133,133,133,,,,,,,,,,,,,,,,,,,,,,,,,,,,,,,,,,,,,,,,,,,,,,,,,,,991,2022-11-25_14h45.18.478,test3,2022.2.4,59.70967650599897,
None,None,None,None,None,maps/google_map_1.png,None,objects/2/2_33.jpg,None,indoors,Box_WoodenClosed.jpg,new,0,134,134,134,,,,,,,,,,,,,,,,,,,,,737.5781239999999,734.7789715829999,734.7789715829999,734.7789715829999,734.7789715829999,734.7789715829999,right,1.3489274170000272,736.4309417499999,736.4309417499999,736.4309417499999,736.4309417499999,736.4309417499999,736.4309417499999,736.4309417499999,736.4309417499999,736.4309417499999,4,1.1264837079999097,737.827925667,,,,,,,,,,,991,2022-11-25_14h45.18.478,test3,2022.2.4,59.70967650599897,
5.920615485415139,71.8991596638655,251.89915966386602,low,339.398339928256,maps/google_map_1.png,2.50081973560928,objects/1/1_98.jpg,0.0,indoors,Brush_BathBack.jpg,old,0,135,135,135,0,0,0,0,,,,,,,,,,,,,,,,,743.311183708,738.078778667,738.078778667,738.078778667,738.078778667,738.078778667,right,0.2542000009999583,738.630162875,738.630162875,738.630162875,738.630162875,738.630162875,738.630162875,738.630162875,738.630162875,738.630162875,5,4.65438841699995,743.7928550419999,743.7928550419999,743.7928550419999,743.7928550419999,109.5,['return'],[2.3955025419999174],,,,,991,2022-11-25_14h45.18.478,test3,2022.2.4,59.70967650599897,
