list,radians,pos_1,pos_2,type,degrees,map_file,PE,object,isFiller,outdoors_response,stimulus,list_loop.thisRepN,list_loop.thisTrialN,list_loop.thisN,list_loop.thisIndex,trials.thisRepN,trials.thisTrialN,trials.thisN,trials.thisIndex,text.started,key_resp.started,key_resp.keys,key_resp.rt,Instr_2.started,key_resp_instr_2.started,key_resp_instr_2.keys,key_resp_instr_2.rt,Instr_3.started,key_instr_3.started,key_instr_3.keys,key_instr_3.rt,Instr_4.started,key_instr_4.started,key_instr_4.keys,key_instr_4.rt,final_instructions.started,final_instr_key.started,final_instr_key.keys,final_instr_key.rt,text_4.started,image.started,truck_1.started,truck_1.stopped,truck_2.started,truck_2.stopped,truck_3.started,truck_3.stopped,image_3.started,image_feedb.started,text_5.started,text_7.started,ind_out_resp.started,ind_out_resp.keys,ind_out_resp.rt,highlight_resp_2.started,text_8.started,text_10.started,highlight_resp_2.stopped,text_8.stopped,text_10.stopped,text_4.stopped,Break_text.started,break_resp.started,break_resp.keys,break_resp.rt,participant,date,expName,psychopyVersion,frameRate,
,,,,,,,,,,,,,,,,,,,,343.73129250016063,343.73129250016063,space,25.693108200095594,,,,,,,,,,,,,,,,,,,,,,,,,,,,,,,,,,,,,,,,,,,991,2022-11-25_14h12.08.665,test3,2022.2.4,None,
,,,,,,,,,,,,,,,,,,,,,,,,369.4361032000743,369.4361032000743,space,15.501177999889478,,,,,,,,,,,,,,,,,,,,,,,,,,,,,,,,,,,,,,,991,2022-11-25_14h12.08.665,test3,2022.2.4,None,
,,,,,,,,,,,,,,,,,,,,,,,,,,,,384.9528702001553,384.9528702001553,space,44.14867049991153,,,,,,,,,,,,,,,,,,,,,,,,,,,,,,,,,,,991,2022-11-25_14h12.08.665,test3,2022.2.4,None,
,,,,,,,,,,,,,,,,,,,,,,,,,,,,,,,,429.1126774000004,429.1126774000004,space,25.197590199764818,,,,,,,,,,,,,,,,,,,,,,,,,,,,,,,991,2022-11-25_14h12.08.665,test3,2022.2.4,None,
,,,,,,,,,,,,,,,,,,,,,,,,,,,,,,,,,,,,454.3183206000831,454.3183206000831,space,88.24624260002747,,,,,,,,,,,,,,,,,,,,,,,,,,,991,2022-11-25_14h12.08.665,test3,2022.2.4,None,
stimuli_position_map_2.csv,0.630978256004724,148.319327731092,328.319327731092,low,36.1707280512262,maps/google_map_1.png,22.1485996798662,objects/1/1_12.jpg,0,outdoors,Van.jpg,0,0,0,0,0,0,0,0,,,,,,,,,,,,,,,,,,,,,542.7306970001664,543.5335338001605,543.6854515001178,544.1797366000246,544.6770958001725,545.1687072000932,545.6854419000447,546.1770256001037,546.9599351000506,546.9599351000506,548.2103864999954,548.2103864999954,548.2103864999954,a,3.845587399788201,552.0687742000446,552.0687742000446,552.0687742000446,553.0615317001939,553.0615317001939,553.0615317001939,,,,,,991,2022-11-25_14h12.08.665,test3,2022.2.4,None,
stimuli_position_map_2.csv,3.49079458450047,58.3193277310925,221.226890756303,singletons,200.109243697479,maps/google_map_1.png,None,objects/1/1_15.jpg,0,indoors,Clip_Paper.jpg,0,0,0,0,0,1,1,1,,,,,,,,,,,,,,,,,,,,,553.0615317001939,553.6747679000255,554.0603769000154,554.5519836000167,555.0603814001661,555.5521329999901,556.0603816001676,556.5520240000915,557.2100603000727,557.2100603000727,558.5854722000659,558.5854722000659,558.5854722000659,l,1.3585338999982923,559.9520293001551,559.9520293001551,559.9520293001551,560.9438556001987,560.9438556001987,560.9438556001987,553.6747679000255,,,,,991,2022-11-25_14h12.08.665,test3,2022.2.4,None,
stimuli_position_map_2.csv,0.694860365402418,148.319327731092,328.319327731092,low,39.8327598001386,maps/google_map_1.png,18.4865679309538,objects/1/1_61.jpg,1,indoors,Bottle_Baby.jpg,0,0,0,0,0,2,2,2,,,,,,,,,,,,,,,,,,,,,560.9438556001987,561.5460244000424,561.9446457000449,562.4352087001316,562.9439277001657,563.4356711001601,563.9438554001972,564.4356057001278,565.0929609001614,565.0929609001614,566.4603526000865,566.4603526000865,566.4603526000865,l,0.8952726998832077,567.3689034001436,567.3689034001436,567.3689034001436,568.3606338000391,568.3606338000391,568.3606338000391,561.5460244000424,,,,,991,2022-11-25_14h12.08.665,test3,2022.2.4,None,
stimuli_position_map_2.csv,0.934757696397727,148.319327731092,328.319327731092,low,53.5848360992328,maps/google_map_1.png,4.73449163185966,objects/1/1_61.jpg,1,indoors,Bottle_Baby.jpg,0,0,0,0,0,3,3,3,,,,,,,,,,,,,,,,,,,,,568.3606338000391,568.9660592,569.3604886000976,569.8521331001539,570.3605871000327,570.8520433001686,571.3604252000805,571.8519708001986,572.4915041001514,572.4915041001514,573.8857082000468,573.8857082000468,573.8857082000468,l,0.6702934000641108,574.5687270001508,574.5687270001508,574.5687270001508,575.5605285000056,575.5605285000056,575.5605285000056,568.9660592,,,,,991,2022-11-25_14h12.08.665,test3,2022.2.4,None,
stimuli_position_map_2.csv,1.41428372826943,148.319327731092,328.319327731092,low,81.0735895186296,maps/google_map_1.png,22.7542617875372,objects/1/1_87.jpg,1,indoors,MouthGuard.jpg,0,0,0,0,0,4,4,4,,,,,,,,,,,,,,,,,,,,,575.5605285000056,576.1601386000402,576.5520659000613,577.0439957000781,577.5519881001674,578.0440855000634,578.5521007000934,579.0440868001897,579.7105425000191,579.7105425000191,581.0855622000527,581.0855622000527,581.0855622000527,l,0.7779151999857277,581.8772671001498,581.8772671001498,581.8772671001498,582.8688881001435,582.8688881001435,582.8688881001435,576.1601386000402,,,,,991,2022-11-25_14h12.08.665,test3,2022.2.4,None,
stimuli_position_map_2.csv,1.01973337750663,148.319327731092,328.319327731092,low,58.456053487641,maps/google_map_1.png,0.136725756548586,objects/1/1_143.jpg,0,indoors,Radio_Vintage.jpg,0,0,0,0,0,5,5,5,,,,,,,,,,,,,,,,,,,,,582.8688881001435,583.4734611001331,583.8689832000528,584.3604345000349,584.8689674001653,585.3606965001673,585.8689614001196,586.3628297999967,587.0102290001232,587.0102290001232,588.3940061000176,588.3940061000176,588.3940061000176,l,1.0148459998890758,589.4189736000262,589.4189736000262,589.4189736000262,590.4106652000919,590.4106652000919,590.4106652000919,583.4734611001331,,,,,991,2022-11-25_14h12.08.665,test3,2022.2.4,None,
stimuli_position_map_2.csv,1.31843651656477,148.319327731092,328.319327731092,low,75.579163369955,maps/google_map_1.png,17.2598356388626,objects/1/1_55.jpg,0,outdoors,CraneMachine.jpg,0,0,0,0,0,6,6,6,,,,,,,,,,,,,,,,,,,,,590.4106652000919,591.0096122000832,591.410612600157,591.9022491001524,592.4104904001579,592.9023692000192,593.4105634000152,593.902015700005,594.5532280001789,594.5532280001789,595.9356824001297,595.9356824001297,595.9356824001297,a,0.7027135000098497,596.6520992000587,596.6520992000587,596.6520992000587,597.6450154001359,597.6450154001359,597.6450154001359,591.0096122000832,,,,,991,2022-11-25_14h12.08.665,test3,2022.2.4,None,
stimuli_position_map_2.csv,1.52585698829013,148.319327731092,328.319327731092,low,87.4695088828737,maps/google_map_1.png,29.1501811517813,objects/1/1_87.jpg,1,indoors,MouthGuard.jpg,0,0,0,0,0,7,7,7,,,,,,,,,,,,,,,,,,,,,597.6450154001359,598.2514502000995,598.6439663001802,599.1357705001719,599.644099800149,600.1358151000459,600.6441321000457,601.1358979002107,601.7780179001857,601.7780179001857,603.1689398000017,603.1689398000017,603.1689398000017,l,0.5339350998401642,603.7188978001941,603.7188978001941,603.7188978001941,604.7107035000809,604.7107035000809,604.7107035000809,598.2514502000995,,,,,991,2022-11-25_14h12.08.665,test3,2022.2.4,None,
stimuli_position_map_2.csv,0.919524054087972,148.319327731092,328.319327731092,low,52.7115699795653,maps/google_map_1.png,5.60775775152715,objects/2/2_54.jpg,1,indoors,Bottle_Oil.jpg,0,0,0,0,0,8,8,8,,,,,,,,,,,,,,,,,,,,,604.7107035000809,605.3151513000485,605.7024012000766,606.1940260999836,606.7024847001303,607.1940066001844,607.7105798001867,608.2024488002062,608.8600262000691,608.8600262000691,610.2357550000306,610.2357550000306,610.2357550000306,l,0.6519977999851108,610.9032749000471,610.9032749000471,610.9032749000471,611.8941456000321,611.8941456000321,611.8941456000321,605.3151513000485,,,,,991,2022-11-25_14h12.08.665,test3,2022.2.4,None,
stimuli_position_map_2.csv,1.5464877260545,148.319327731092,328.319327731092,low,88.6521626400669,maps/google_map_1.png,30.3328349089745,objects/1/1_99.jpg,0,indoors,Perfume.jpg,0,0,0,0,0,9,9,9,,,,,,,,,,,,,,,,,,,,,611.8941456000321,612.4938399000093,612.8856226000935,613.377628599992,613.8858517000917,614.3776496001519,614.8941295000259,615.3857443002053,616.0408531001303,616.0408531001303,617.4192720002029,617.4192720002029,617.4192720002029,l,0.5896430998109281,618.0192379001528,618.0192379001528,618.0192379001528,619.0106292001437,619.0106292001437,619.0106292001437,612.4938399000093,,,,,991,2022-11-25_14h12.08.665,test3,2022.2.4,None,
stimuli_position_map_2.csv,3.17503548085901,238.319327731092,70.3865546218487,singletons,182.008403361345,maps/google_map_1.png,None,objects/1/1_134.jpg,0,outdoors,TowerEiffel.jpg,0,0,0,0,0,10,10,10,,,,,,,,,,,,,,,,,,,,,619.0106292001437,619.6115434002131,620.003596900031,620.5025591000449,621.002485500183,621.4941957001574,622.0024345000274,622.4943397000898,623.1536729000509,623.1536729000509,624.5358443001751,624.5358443001751,624.5358443001751,a,0.7009344999678433,625.2526867000852,625.2526867000852,625.2526867000852,626.244173400104,626.244173400104,626.244173400104,619.6115434002131,,,,,991,2022-11-25_14h12.08.665,test3,2022.2.4,None,
stimuli_position_map_2.csv,1.2201187464001,148.319327731092,328.319327731092,low,69.9431128509614,maps/google_map_1.png,11.623785119869,objects/1/1_101.jpg,0,indoors,Chicken_FriedWing.jpg,0,0,0,0,0,11,11,11,,,,,,,,,,,,,,,,,,,,,626.244173400104,626.8448067000136,627.244287900161,627.7360459000338,628.2443508000579,628.7372944001108,629.2443326001521,629.7360191000625,630.3920076000504,630.3920076000504,631.7691595000215,631.7691595000215,631.7691595000215,l,0.9153612998779863,632.6964527000673,632.6964527000673,632.6964527000673,,,,626.8448067000136,,,,,991,2022-11-25_14h12.08.665,test3,2022.2.4,None,
stimuli_position_map_2.csv,1.02243990751642,148.319327731092,328.319327731092,low,58.6112048894762,maps/google_map_1.png,0.291877158383786,objects/2/2_3.jpg,1,outdoors,ColumnMarble.jpg,0,0,0,0,0,12,12,12,,,,,,,,,,,,,,,,,,,,,633.6946451000404,634.2955789000262,634.6860880001914,635.1774711001199,635.6860979001503,636.1772914000321,636.6859208000824,637.1775365001522,637.8275630001444,637.8275630001444,639.2027853000909,639.2027853000909,639.2027853000909,a,0.8111671998631209,640.0275881001726,640.0275881001726,640.0275881001726,641.0191656001844,641.0191656001844,641.0191656001844,634.2955789000262,,,,,991,2022-11-25_14h12.08.665,test3,2022.2.4,None,
stimuli_position_map_2.csv,1.56623002974933,148.319327731092,328.319327731092,low,89.7838870556942,maps/google_map_1.png,31.4645593246018,objects/1/1_58.jpg,0,indoors,Candle_ChristmasDecor.jpg,0,0,0,0,0,13,13,13,,,,,,,,,,,,,,,,,,,,,641.0191656001844,641.6216891000513,642.0191699001007,642.5108036000747,643.0191776000429,643.5108988999855,644.0194707000628,644.5109145999886,645.1576372000854,645.1576372000854,646.5444354000501,646.5444354000501,646.5444354000501,l,0.8827414999250323,647.4359906001482,647.4359906001482,647.4359906001482,648.4276501000859,648.4276501000859,648.4276501000859,641.6216891000513,,,,,991,2022-11-25_14h12.08.665,test3,2022.2.4,None,
stimuli_position_map_2.csv,1.00147253400042,148.319327731092,328.319327731092,low,57.4092535414254,maps/google_map_1.png,0.910074189667017,objects/1/1_85.jpg,0,outdoors,Chimpanzee.jpg,0,0,0,0,0,14,14,14,,,,,,,,,,,,,,,,,,,,,648.4276501000859,649.0275795001071,649.4276670000982,649.9194175000302,650.4278138000518,650.9193067001179,651.4276413000189,651.9195063000079,652.5692223000806,652.5692223000806,653.9529429001268,653.9529429001268,653.9529429001268,a,0.5034752998035401,654.4695552000776,654.4695552000776,654.4695552000776,655.4609737000428,655.4609737000428,655.4609737000428,649.0275795001071,,,,,991,2022-11-25_14h12.08.665,test3,2022.2.4,None,
stimuli_position_map_2.csv,1.12365386032469,148.319327731092,328.319327731092,low,64.4132786173388,maps/google_map_1.png,6.09395088624637,objects/1/1_87.jpg,1,indoors,MouthGuard.jpg,0,0,0,0,0,15,15,15,,,,,,,,,,,,,,,,,,,,,655.4609737000428,656.0634695000481,656.4610091000795,656.952608200023,657.4610697000753,657.9526317000855,658.4610892001074,658.9528881001752,659.5931030001957,659.5931030001957,660.9862377000973,660.9862377000973,660.9862377000973,l,0.4826646998990327,661.4779548000079,661.4779548000079,661.4779548000079,662.4695125001017,662.4695125001017,662.4695125001017,656.0634695000481,,,,,991,2022-11-25_14h12.08.665,test3,2022.2.4,None,
stimuli_position_map_2.csv,1.3453883929847,148.319327731092,328.319327731092,low,77.1241753940275,maps/google_map_1.png,18.8048476629351,objects/1/1_19.jpg,0,indoors,Neckrest.jpg,0,0,0,0,0,16,16,16,,,,,,,,,,,,,,,,,,,,,662.4695125001017,663.0762205000501,663.4694988001138,663.961008500075,664.4692793001886,664.961215400137,665.4695628001355,665.961229500128,666.6103505000938,666.6103505000938,667.9946912000887,667.9946912000887,667.9946912000887,l,0.6352062998339534,668.6453861000482,668.6453861000482,668.6453861000482,669.6363097000867,669.6363097000867,669.6363097000867,663.0762205000501,,,,,991,2022-11-25_14h12.08.665,test3,2022.2.4,None,
stimuli_position_map_2.csv,1.03689563642355,148.319327731092,328.319327731092,low,59.43987724721,maps/google_map_1.png,1.12054951611758,objects/1/1_6.jpg,0,indoors,Syrup_Maple.jpg,0,0,0,0,0,17,17,17,,,,,,,,,,,,,,,,,,,,,669.6363097000867,670.2410374002066,670.636330800131,671.1277598000597,671.6363063000608,672.1279200999998,672.6363100002054,673.1279741001781,673.7874328000471,673.7874328000471,675.1612722000573,675.1612722000573,675.1612722000573,l,0.6271511998493224,675.8028371001128,675.8028371001128,675.8028371001128,676.7945436001755,676.7945436001755,676.7945436001755,670.2410374002066,,,,,991,2022-11-25_14h12.08.665,test3,2022.2.4,None,
stimuli_position_map_2.csv,1.47052396587124,148.319327731092,328.319327731092,low,84.2975521837014,maps/google_map_1.png,25.978224452609,objects/1/1_73.jpg,0,outdoors,Hook_Double.jpg,0,0,0,0,0,18,18,18,,,,,,,,,,,,,,,,,,,,,676.7945436001755,677.3996153001208,677.7865453001577,678.2779355000239,678.7946576999966,679.2864204000216,679.7947174999863,680.286390400026,680.9416432001162,680.9416432001162,682.3196791000664,682.3196791000664,682.3196791000664,a,1.550366099923849,683.8863721000962,683.8863721000962,683.8863721000962,684.878054200206,684.878054200206,684.878054200206,677.3996153001208,,,,,991,2022-11-25_14h12.08.665,test3,2022.2.4,None,
stimuli_position_map_2.csv,1.4472400673955,148.319327731092,328.319327731092,low,82.9628064112068,maps/google_map_1.png,24.6434786801143,objects/1/1_97.jpg,0,indoors,LetterMail.jpg,0,0,0,0,0,19,19,19,,,,,,,,,,,,,,,,,,,,,684.878054200206,685.4785360000096,685.8779230001383,686.3695643001702,686.8697063000873,687.3614104001317,687.8696465000976,688.3614332000725,689.0247713001445,689.0247713001445,690.4030048002023,690.4030048002023,690.4030048002023,l,1.0626482998486608,691.477881600149,691.477881600149,691.477881600149,692.4695700001903,692.4695700001903,692.4695700001903,685.4785360000096,,,,,991,2022-11-25_14h12.08.665,test3,2022.2.4,None,
stimuli_position_map_2.csv,0.996190906339382,148.319327731092,328.319327731092,low,57.1064850767799,maps/google_map_1.png,1.21284265431257,objects/1/1_127.jpg,0,outdoors,Fortress.jpg,0,0,0,0,0,20,20,20,,,,,,,,,,,,,,,,,,,,,692.4695700001903,693.0690976001788,693.4695820000488,693.9614885000046,694.4615834001452,694.9532095000613,695.469732100144,695.9613136001863,696.6190410000272,696.6190410000272,697.9948674000334,697.9948674000334,697.9948674000334,a,0.4839912997558713,698.4948144000955,698.4948144000955,698.4948144000955,699.4863518001512,699.4863518001512,699.4863518001512,693.0690976001788,,,,,991,2022-11-25_14h12.08.665,test3,2022.2.4,None,
stimuli_position_map_2.csv,1.17355728967905,148.319327731092,328.319327731092,low,67.2739847586718,maps/google_map_1.png,8.95465702757937,objects/1/1_87.jpg,1,indoors,MouthGuard.jpg,0,0,0,0,0,21,21,21,,,,,,,,,,,,,,,,,,,,,699.4863518001512,700.0937525001355,700.4865453999955,700.978230400011,701.4865314001217,701.9781112000346,702.4862550999969,702.9782455000095,703.6208691000938,703.6208691000938,705.011572800111,705.011572800111,705.011572800111,l,0.44952329993247986,705.469806100009,705.469806100009,705.469806100009,706.4614794000518,706.4614794000518,706.4614794000518,700.0937525001355,,,,,991,2022-11-25_14h12.08.665,test3,2022.2.4,None,
stimuli_position_map_2.csv,1.10918743929277,148.319327731092,328.319327731092,low,63.5839933352542,maps/google_map_1.png,5.26466560416175,objects/1/1_17.jpg,0,indoors,WashingMachine.jpg,0,0,0,0,0,22,22,22,,,,,,,,,,,,,,,,,,,,,706.4614794000518,707.0651261000894,707.4616771000437,707.9531099000014,708.4614635000471,708.9532004001085,709.4615506001282,709.9530905000865,710.6089888000861,710.6089888000861,711.9865957000293,711.9865957000293,711.9865957000293,l,0.5393080997746438,712.5365462000482,712.5365462000482,712.5365462000482,713.5280526001006,713.5280526001006,713.5280526001006,707.0651261000894,,,,,991,2022-11-25_14h12.08.665,test3,2022.2.4,None,
stimuli_position_map_2.csv,1.90628257275586,148.319327731092,328.319327731092,medium,109.277344935049,maps/google_map_1.png,50.9580172039569,objects/1/1_103.jpg,0,outdoors,Door_Green.jpg,0,0,0,0,0,23,23,23,,,,,,,,,,,,,,,,,,,,,713.5280526001006,714.13412170019,714.5282038000878,715.0198562000878,715.5199256001506,716.0116723000538,716.52828710014,717.0198608001228,717.6745985001326,717.6745985001326,719.0533882000018,719.0533882000018,719.0533882000018,a,0.6180618999060243,719.6866410002112,719.6866410002112,719.6866410002112,720.6782707001548,720.6782707001548,720.6782707001548,714.13412170019,,,,,991,2022-11-25_14h12.08.665,test3,2022.2.4,None,
stimuli_position_map_2.csv,2.08531791257233,148.319327731092,328.319327731092,medium,119.540517281217,maps/google_map_1.png,61.2211895501241,objects/1/1_110.jpg,0,outdoors,Boot_Rain.jpg,0,0,0,0,0,24,24,24,,,,,,,,,,,,,,,,,,,,,720.6782707001548,721.2808929001912,721.6781576001085,722.1697435001843,722.6702108001336,723.1617350000888,723.6782907000743,724.169813600136,724.8189945002086,724.8189945002086,726.2034241000656,726.2034241000656,726.2034241000656,l,4.6834060999099165,730.8957268001977,730.8957268001977,730.8957268001977,731.8867331000511,731.8867331000511,731.8867331000511,721.2808929001912,,,,,991,2022-11-25_14h12.08.665,test3,2022.2.4,None,
stimuli_position_map_2.csv,2.23671523458584,148.319327731092,328.319327731092,medium,128.219344657787,maps/google_map_1.png,69.9000169266947,objects/1/1_78.jpg,0,indoors,Blueprints.jpg,0,0,0,0,0,25,25,25,,,,,,,,,,,,,,,,,,,,,731.8867331000511,732.4860237000976,732.8865604000166,733.3781439000741,733.886818200117,734.378337000031,734.8867054001894,735.378364500124,736.0275396001525,736.0275396001525,737.4118963000365,737.4118963000365,737.4118963000365,l,0.6112327000591904,738.0368002001196,738.0368002001196,738.0368002001196,739.0285028000362,739.0285028000362,739.0285028000362,732.4860237000976,,,,,991,2022-11-25_14h12.08.665,test3,2022.2.4,None,
stimuli_position_map_2.csv,3.70227645399076,148.319327731092,328.319327731092,high,212.232408190553,maps/google_map_1.png,153.913080459461,objects/1/1_14.jpg,0,outdoors,Hubcap.jpg,0,0,0,0,0,26,26,26,,,,,,,,,,,,,,,,,,,,,739.0285028000362,739.6288630000781,740.0199247000273,740.5115555000957,741.028225600021,741.5201348999981,742.0282929001842,742.5200209000614,743.1775413001888,743.1775413001888,744.5534634999931,744.5534634999931,744.5534634999931,a,0.6188455997034907,745.1869406001642,745.1869406001642,745.1869406001642,746.1784161000978,746.1784161000978,746.1784161000978,739.6288630000781,,,,,991,2022-11-25_14h12.08.665,test3,2022.2.4,None,
stimuli_position_map_2.csv,1.2275583630745,148.319327731092,328.319327731092,low,70.3695876921685,maps/google_map_1.png,12.0502599610761,objects/1/1_122.jpg,0,indoors,Egg_Cup.jpg,0,0,0,0,0,27,27,27,,,,,,,,,,,,,,,,,,,,,746.1784161000978,746.7798211001791,747.1785512000788,747.6700244001113,748.1701203000266,748.6632362999953,749.1782783002127,749.6700810000766,750.3218853999861,750.3218853999861,751.7036669000518,751.7036669000518,751.7036669000518,l,0.3484489996917546,752.061957300175,752.061957300175,752.061957300175,753.0542338001542,753.0542338001542,753.0542338001542,746.7798211001791,,,,,991,2022-11-25_14h12.08.665,test3,2022.2.4,None,
stimuli_position_map_2.csv,2.64877030812325,238.319327731092,224.243697478992,singletons,151.840336134454,maps/google_map_1.png,None,objects/1/1_136.jpg,0,outdoors,Stingray.jpg,0,0,0,0,0,28,28,28,,,,,,,,,,,,,,,,,,,,,753.0542338001542,753.6571898001712,754.0533450001385,754.5451582001988,755.0535762000363,755.5451813000254,756.0534318999853,756.5453004001174,757.1976895001717,757.1976895001717,758.5784004000016,758.5784004000016,758.5784004000016,a,0.9254282999318093,759.5201542000286,759.5201542000286,759.5201542000286,760.5120094001759,760.5120094001759,760.5120094001759,753.6571898001712,,,,,991,2022-11-25_14h12.08.665,test3,2022.2.4,None,
stimuli_position_map_2.csv,4.70120448179272,238.319327731092,230.27731092437,singletons,269.495798319328,maps/google_map_1.png,None,objects/1/1_71.jpg,0,outdoors,TotemPole.jpg,0,0,0,0,0,29,29,29,,,,,,,,,,,,,,,,,,,,,760.5120094001759,761.1150195000228,761.5034979002085,761.9953252000269,762.5035273001995,762.995387500152,763.5036474000663,763.995392100187,764.6526243002154,764.6526243002154,766.0369010001887,766.0369010001887,766.0369010001887,a,0.9788967999629676,767.0285303001292,767.0285303001292,767.0285303001292,768.0202946001664,768.0202946001664,768.0202946001664,761.1150195000228,,,,,991,2022-11-25_14h12.08.665,test3,2022.2.4,None,
stimuli_position_map_2.csv,2.50659176219515,148.319327731092,328.319327731092,medium,143.689973629021,maps/google_map_1.png,85.3706458979286,objects/1/1_131.jpg,0,outdoors,Cart_Wooden.jpg,0,0,0,0,0,30,30,30,,,,,,,,,,,,,,,,,,,,,768.0202946001664,768.6262049002107,769.0202808000613,769.5120388001669,770.012340300018,770.5034952000715,771.0120200000238,771.503530099988,772.1621934000868,772.1621934000868,773.5454383001197,773.5454383001197,773.5454383001197,a,0.6304243998602033,774.1869887001812,774.1869887001812,774.1869887001812,775.1791999000125,775.1791999000125,775.1791999000125,768.6262049002107,,,,,991,2022-11-25_14h12.08.665,test3,2022.2.4,None,
stimuli_position_map_2.csv,3.92754334511961,148.319327731092,328.319327731092,high,225.14579685399,maps/google_map_1.png,166.826469122898,objects/1/1_18.jpg,0,outdoors,Toy_SeeSaw.jpg,0,0,0,0,0,31,31,31,,,,,,,,,,,,,,,,,,,,,775.1791999000125,775.7819869001396,776.1701856001746,776.6618302999996,777.1785324001685,777.6703055000398,778.178712700028,778.6703304999974,779.322962900158,779.322962900158,780.7038440001197,780.7038440001197,780.7038440001197,a,0.6762263998389244,781.3955182000063,781.3955182000063,781.3955182000063,782.387122400105,782.387122400105,782.387122400105,775.7819869001396,,,,,991,2022-11-25_14h12.08.665,test3,2022.2.4,None,
stimuli_position_map_2.csv,1.05956804712344,148.319327731092,328.319327731092,low,60.7395695803244,maps/google_map_1.png,2.42024184923199,objects/1/1_87.jpg,1,indoors,MouthGuard.jpg,0,0,0,0,0,32,32,32,,,,,,,,,,,,,,,,,,,,,782.387122400105,782.9940377001185,783.3870373000391,783.878582400037,784.3869103000034,784.8787738000974,785.3871764000505,785.8785363000352,786.517582600005,786.517582600005,787.9119133001659,787.9119133001659,787.9119133001659,l,0.9527908999007195,788.8788008000702,788.8788008000702,788.8788008000702,789.8702471000142,789.8702471000142,789.8702471000142,782.9940377001185,,,,,991,2022-11-25_14h12.08.665,test3,2022.2.4,None,
stimuli_position_map_2.csv,0.88721467811336,148.319327731092,328.319327731092,low,50.8594401466257,maps/google_map_1.png,7.45988758446672,objects/1/1_113.jpg,0,outdoors,Crossbow.jpg,0,0,0,0,0,33,33,33,,,,,,,,,,,,,,,,,,,,,789.8702471000142,790.4704603999853,790.870491300011,791.3621778001543,791.8705945000984,792.3621737000067,792.870571100153,793.3635721001774,794.0236703001428,794.0236703001428,795.3955016999971,795.3955016999971,795.3955016999971,l,1.4089748999103904,796.8204783000983,796.8204783000983,796.8204783000983,797.8119751000777,797.8119751000777,797.8119751000777,790.4704603999853,,,,,991,2022-11-25_14h12.08.665,test3,2022.2.4,None,
stimuli_position_map_2.csv,1.38722744858078,148.319327731092,328.319327731092,low,79.5225925938027,maps/google_map_1.png,21.2032648627103,objects/1/1_125.jpg,0,outdoors,Pickaxe.jpg,0,0,0,0,0,34,34,34,,,,,,,,,,,,,,,,,,,,,797.8119751000777,798.4162678001449,798.8038304999936,799.2956217001192,799.8039917000569,800.2957371000666,800.8039494000841,801.2955409002025,801.9583457000554,801.9583457000554,803.3370799000841,803.3370799000841,803.3370799000841,a,0.37215839978307486,803.7205511000939,803.7205511000939,803.7205511000939,804.712283300003,804.712283300003,804.712283300003,798.4162678001449,,,,,991,2022-11-25_14h12.08.665,test3,2022.2.4,None,
stimuli_position_map_2.csv,1.22210465221004,148.319327731092,328.319327731092,low,70.0569545852887,maps/google_map_1.png,11.7376268541962,objects/1/1_87.jpg,1,indoors,MouthGuard.jpg,0,0,0,0,0,35,35,35,,,,,,,,,,,,,,,,,,,,,804.712283300003,805.3132082000375,805.7122491002083,806.2044914001599,806.712184500182,807.2038950000424,807.7122326001991,808.2039393000305,808.8476339001209,808.8476339001209,810.2372215001378,810.2372215001378,810.2372215001378,l,0.7754143998026848,811.0206397001166,811.0206397001166,811.0206397001166,812.0121989001054,812.0121989001054,812.0121989001054,805.3132082000375,,,,,991,2022-11-25_14h12.08.665,test3,2022.2.4,None,
stimuli_position_map_2.csv,1.10304354329757,148.319327731092,328.319327731092,low,63.2317954756569,maps/google_map_1.png,4.91246774456443,objects/2/2_3.jpg,1,outdoors,ColumnMarble.jpg,0,0,0,0,0,36,36,36,,,,,,,,,,,,,,,,,,,,,812.0121989001054,812.6145254001021,813.0121891000308,813.5041307001375,814.0123897001613,814.5040498999879,815.0123813000973,815.5052369001787,816.1403199001215,816.1403199001215,817.5372176000383,817.5372176000383,817.5372176000383,a,0.4704359997995198,818.0206467001699,818.0206467001699,818.0206467001699,819.012441100087,819.012441100087,819.012441100087,812.6145254001021,,,,,991,2022-11-25_14h12.08.665,test3,2022.2.4,None,
stimuli_position_map_2.csv,1.10465669489717,148.319327731092,328.319327731092,low,63.3242691342329,maps/google_map_1.png,5.0049414031405,objects/1/1_54.jpg,0,outdoors,LeafBlower.jpg,0,0,0,0,0,37,37,37,,,,,,,,,,,,,,,,,,,,,819.012441100087,819.6116727001499,820.0123756001703,820.5038247001357,821.0122134000994,821.503952300176,822.0124294999987,822.5041410999838,823.1582661001012,823.1582661001012,824.5372982001863,824.5372982001863,824.5372982001863,a,0.24595630005933344,824.795744500123,824.795744500123,824.795744500123,825.7872193001676,825.7872193001676,825.7872193001676,819.6116727001499,,,,,991,2022-11-25_14h12.08.665,test3,2022.2.4,None,
stimuli_position_map_2.csv,1.24666990366639,148.319327731092,328.319327731092,low,71.4651537133597,maps/google_map_1.png,13.1458259822673,objects/1/1_61.jpg,1,indoors,Bottle_Baby.jpg,0,0,0,0,0,38,38,38,,,,,,,,,,,,,,,,,,,,,825.7872193001676,826.388690300053,826.7874159000348,827.2790962001309,827.7872188000474,828.2790669000242,828.7874119000044,829.2789277001284,829.9210901001934,829.9210901001934,831.3122581001371,831.3122581001371,831.3122581001371,l,0.30056879995390773,831.6289842000697,831.6289842000697,831.6289842000697,832.6209448000882,832.6209448000882,832.6209448000882,826.388690300053,,,,,991,2022-11-25_14h12.08.665,test3,2022.2.4,None,
stimuli_position_map_2.csv,1.097539497708,148.319327731092,328.319327731092,low,62.9162769386749,maps/google_map_1.png,4.59694920758249,objects/1/1_81.jpg,0,outdoors,Outhouse.jpg,0,0,0,0,0,39,39,39,,,,,,,,,,,,,,,,,,,,,832.6209448000882,833.2278901000973,833.620876400033,834.1125855999999,834.6208552999888,835.1123701999895,835.6208680002019,836.1125070999842,836.7632680002134,836.7632680002134,838.1456701999996,838.1456701999996,838.1456701999996,a,0.2901324999984354,838.4456537000369,838.4456537000369,838.4456537000369,839.4375407001935,839.4375407001935,839.4375407001935,833.2278901000973,,,,,991,2022-11-25_14h12.08.665,test3,2022.2.4,None,
stimuli_position_map_2.csv,0.870714007003522,148.319327731092,328.319327731092,low,49.9135418027497,maps/google_map_1.png,8.40578592834274,objects/1/1_61.jpg,1,indoors,Bottle_Baby.jpg,0,0,0,0,0,40,40,40,,,,,,,,,,,,,,,,,,,,,839.4375407001935,840.03764770017,840.429136000108,840.921021600021,841.4290285999887,841.921377300052,842.429102400085,842.9209502001759,843.5743673001416,843.5743673001416,844.962548200041,844.962548200041,844.962548200041,l,0.6299852998927236,845.603972400073,845.603972400073,845.603972400073,846.5970915001817,846.5970915001817,846.5970915001817,840.03764770017,,,,,991,2022-11-25_14h12.08.665,test3,2022.2.4,None,
stimuli_position_map_2.csv,0.963317714966675,148.319327731092,328.319327731092,low,55.222034615924,maps/google_map_1.png,3.09729311516841,objects/1/1_90.jpg,1,outdoors,TreeHouse.jpg,0,0,0,0,0,41,41,41,,,,,,,,,,,,,,,,,,,,,846.5970915001817,847.2085186000913,847.5958712000865,848.0874401000328,848.5957812999841,849.0875180000439,849.5957338002045,850.0875843001995,850.7377115001436,850.7377115001436,852.1209891000763,852.1209891000763,852.1209891000763,a,0.25482699973508716,852.3876548002008,852.3876548002008,852.3876548002008,853.3790696000215,853.3790696000215,853.3790696000215,847.2085186000913,,,,,991,2022-11-25_14h12.08.665,test3,2022.2.4,None,
stimuli_position_map_2.csv,3.97140999272493,148.319327731092,328.319327731092,high,227.66044544283,maps/google_map_1.png,169.341117711738,objects/1/1_88.jpg,0,outdoors,Acorn.jpg,0,0,0,0,0,42,42,42,,,,,,,,,,,,,,,,,,,,,853.3790696000215,853.9833935000934,854.379261800088,854.8708263000008,855.3711145999841,855.8627764000557,856.3709498001263,856.8627699001227,857.5307055001613,857.5307055001613,858.9043627001811,858.9043627001811,858.9043627001811,a,0.24853289988823235,859.1627537000459,859.1627537000459,859.1627537000459,860.154358800035,860.154358800035,860.154358800035,853.9833935000934,,,,,991,2022-11-25_14h12.08.665,test3,2022.2.4,None,
stimuli_position_map_2.csv,0.63243641477725,148.319327731092,328.319327731092,low,36.2543167706704,maps/google_map_1.png,22.065010960422,objects/1/1_30.jpg,0,outdoors,Boat_Ferry.jpg,0,0,0,0,0,43,43,43,,,,,,,,,,,,,,,,,,,,,860.154358800035,860.7573528001085,861.1541812000796,861.6482760000508,862.1543253001291,862.6460802000947,863.1541693999898,863.6461323001422,864.3044623001479,864.3044623001479,865.6794145000167,865.6794145000167,865.6794145000167,a,0.23031469993293285,865.9209793000482,865.9209793000482,865.9209793000482,866.9126792000607,866.9126792000607,866.9126792000607,860.7573528001085,,,,,991,2022-11-25_14h12.08.665,test3,2022.2.4,None,
stimuli_position_map_2.csv,2.96452941176471,58.3193277310925,139.773109243697,singletons,169.941176470588,maps/google_map_1.png,None,objects/1/1_94.jpg,0,indoors,Toy_BlocksLetter.jpg,0,0,0,0,0,44,44,44,,,,,,,,,,,,,,,,,,,,,866.9126792000607,867.5153326999862,867.9042766001076,868.3960665001068,868.904347400181,869.3960632001981,869.9044429000933,870.3961605001241,871.0590443999972,871.0590443999972,872.4375731002074,872.4375731002074,872.4375731002074,l,0.465833299793303,872.9132770001888,872.9132770001888,872.9132770001888,873.9042333001271,873.9042333001271,873.9042333001271,867.5153326999862,,,,,991,2022-11-25_14h12.08.665,test3,2022.2.4,None,
stimuli_position_map_2.csv,1.38573389355742,328.319327731092,85.4705882352941,singletons,79.436974789916,maps/google_map_1.png,None,objects/1/1_90.jpg,1,outdoors,TreeHouse.jpg,0,0,0,0,0,45,45,45,,,,,,,,,,,,,,,,,,,,,873.9042333001271,874.5081183000002,874.8959115000907,875.3877058001235,875.8959502000362,876.3878417999949,876.896141000092,877.3881145000923,878.0463509000838,878.0463509000838,879.4295846000314,879.4295846000314,879.4295846000314,a,0.34541549999266863,879.7877265000716,879.7877265000716,879.7877265000716,880.779619500041,880.779619500041,880.779619500041,874.5081183000002,,,,,991,2022-11-25_14h12.08.665,test3,2022.2.4,None,
stimuli_position_map_2.csv,5.43797572362278,328.319327731092,206.142857142857,singletons,311.731092436975,maps/google_map_1.png,None,objects/2/2_54.jpg,1,indoors,Bottle_Oil.jpg,0,0,0,0,0,46,46,46,,,,,,,,,,,,,,,,,,,,,880.779619500041,881.381563300034,881.7712184002157,882.2628213001881,882.779589000158,883.2712160001975,883.7793988001067,884.2711457000114,884.9125544000417,884.9125544000417,886.3051754001062,886.3051754001062,886.3051754001062,l,0.22499769972637296,886.5461769001558,886.5461769001558,886.5461769001558,887.537682000082,887.537682000082,887.537682000082,881.381563300034,,,,,991,2022-11-25_14h12.08.665,test3,2022.2.4,None,
stimuli_position_map_2.csv,2.43826423902895,238.319327731092,230.27731092437,singletons,139.773109243697,maps/google_map_1.png,None,objects/2/2_38.jpg,1,outdoors,Megaphone.jpg,0,0,0,0,0,47,47,47,,,,,,,,,,,,,,,,,,,,,887.537682000082,888.1380130001344,888.5375533001497,889.0297708001453,889.5377961001359,890.0296049001627,890.5378420001362,891.0309106002096,891.6884730001912,891.6884730001912,893.0629839000758,893.0629839000758,893.0629839000758,a,0.5835629997309297,893.6629727000836,893.6629727000836,893.6629727000836,894.6544392001815,894.6544392001815,894.6544392001815,888.1380130001344,,,,,991,2022-11-25_14h12.08.665,test3,2022.2.4,None,
stimuli_position_map_2.csv,4.73222760742324,148.319327731092,328.319327731092,high,271.27419405611,maps/google_map_1.png,147.045133674983,objects/1/1_37.jpg,0,indoors,Cassette_Audio.jpg,0,0,0,0,0,48,48,48,,,,,,,,,,,,,,,,,,,,,894.6544392001815,895.262069700053,895.6545438000467,896.1461871000938,896.6545277000405,897.1461693001911,897.6546179000288,898.146279900102,898.8005254000891,898.8005254000891,900.1796534000896,900.1796534000896,900.1796534000896,l,0.5872889999300241,900.7797110001557,900.7797110001557,900.7797110001557,901.7714458000846,901.7714458000846,901.7714458000846,895.262069700053,,,,,991,2022-11-25_14h12.08.665,test3,2022.2.4,None,
stimuli_position_map_2.csv,3.14457938999197,148.319327731092,328.319327731092,medium,180.262512802088,maps/google_map_1.png,121.943185070995,objects/1/1_44.jpg,0,outdoors,Camel_Dromedary.jpg,0,0,0,0,0,49,49,49,,,,,,,,,,,,,,,,,,,,,901.7714458000846,902.3703256000299,902.7713825001847,903.262960600201,903.7713186000474,904.2627878000494,904.771270000143,905.2631662001368,905.9206570000388,905.9206570000388,907.2967331002001,907.2967331002001,907.2967331002001,a,0.49795279977843165,907.8050981999841,907.8050981999841,907.8050981999841,908.7996224001981,908.7996224001981,908.7996224001981,902.3703256000299,,,,,991,2022-11-25_14h12.08.665,test3,2022.2.4,None,
stimuli_position_map_2.csv,0.199772441522138,148.319327731092,328.319327731092,low,11.4519233993583,maps/google_map_1.png,46.8674043317342,objects/1/1_61.jpg,1,indoors,Bottle_Baby.jpg,0,0,0,0,0,50,50,50,,,,,,,,,,,,,,,,,,,,,908.7996224001981,909.4071936002001,909.7961705999915,910.2880121001508,910.7961868999992,911.2879417000804,911.7962327999994,912.2880538001191,912.9244572001044,912.9244572001044,914.3215038001072,914.3215038001072,914.3215038001072,l,0.8369937997777015,915.171452900162,915.171452900162,915.171452900162,916.1630127001554,916.1630127001554,916.1630127001554,909.4071936002001,,,,,991,2022-11-25_14h12.08.665,test3,2022.2.4,None,
stimuli_position_map_2.csv,3.92692604346926,148.319327731092,328.319327731092,high,225.110410135181,maps/google_map_1.png,166.791082404088,objects/1/1_91.jpg,0,indoors,Abacus.jpg,0,0,0,0,0,51,51,51,,,,,,,,,,,,,,,,,,,,,916.1630127001554,916.7648752001114,917.1629930001218,917.6545475001913,918.1629689000547,918.6548441001214,919.1629228000529,919.6548863002099,920.3063433000352,920.3063433000352,921.6886834001634,921.6886834001634,921.6886834001634,l,0.25351079972460866,921.9557207000908,921.9557207000908,921.9557207000908,922.9463219000027,922.9463219000027,922.9463219000027,916.7648752001114,,,,,991,2022-11-25_14h12.08.665,test3,2022.2.4,None,
stimuli_position_map_2.csv,3.86456269206506,148.319327731092,328.319327731092,high,221.535440946405,maps/google_map_1.png,163.216113215312,objects/1/1_45.jpg,0,outdoors,Tractor_Yellow.jpg,0,0,0,0,0,52,52,52,,,,,,,,,,,,,,,,,,,,,922.9463219000027,923.5542207001708,923.9463806999847,924.4380616000853,924.9465096001513,925.4379686000757,925.946353700012,926.4381388002075,927.0935477002058,927.0935477002058,928.4714062002022,928.4714062002022,928.4714062002022,a,0.01158319995738566,928.4964233001228,928.4964233001228,928.4964233001228,929.4880409000907,929.4880409000907,929.4880409000907,923.5542207001708,,,,,991,2022-11-25_14h12.08.665,test3,2022.2.4,None,
stimuli_position_map_2.csv,2.32579416638966,148.319327731092,328.319327731092,medium,133.325780238898,maps/google_map_1.png,75.0064525078051,objects/1/1_23.jpg,0,indoors,HairScrunchie.jpg,0,0,0,0,0,53,53,53,,,,,,,,,,,,,,,,,,,,,929.4880409000907,930.0928585000802,930.4881853000261,930.9799062001985,931.4882001001388,931.9799611000344,932.4880451001227,932.9799760000315,933.6320631001145,933.6320631001145,935.013428500155,935.013428500155,935.013428500155,l,0.2761670998297632,935.3049578000791,935.3049578000791,935.3049578000791,936.2965272001456,936.2965272001456,936.2965272001456,930.0928585000802,,,,,991,2022-11-25_14h12.08.665,test3,2022.2.4,None,
stimuli_position_map_2.csv,3.20556994268232,148.319327731092,328.319327731092,medium,183.75878652319,maps/google_map_1.png,125.439458792098,objects/1/1_62.jpg,0,outdoors,Seashell_AlternateTellin.jpg,0,0,0,0,0,54,54,54,,,,,,,,,,,,,,,,,,,,,936.2965272001456,936.89523870009,937.2963648000732,937.7881476001348,938.2964182000142,938.7881845000666,939.2965271000285,939.789154500002,940.4398627001792,940.4398627001792,941.8214946000371,941.8214946000371,941.8214946000371,a,0.20901489979587495,942.0464457999915,942.0464457999915,942.0464457999915,943.0382105000317,943.0382105000317,943.0382105000317,936.89523870009,,,,,991,2022-11-25_14h12.08.665,test3,2022.2.4,None,
stimuli_position_map_2.csv,4.2495330086749,148.319327731092,328.319327731092,high,243.603803045058,maps/google_map_1.png,174.715524686035,objects/1/1_21.jpg,0,indoors,Thimble.jpg,0,0,0,0,0,55,55,55,,,,,,,,,,,,,,,,,,,,,943.0382105000317,943.6413887001108,944.0383662001695,944.5297750001773,945.0381276002154,945.5297725000419,946.0383539001923,946.5298529001884,947.1811573000159,947.1811573000159,948.5633208001964,948.5633208001964,948.5633208001964,l,0.3001007998827845,948.8715133001097,948.8715133001097,948.8715133001097,949.8633207001258,949.8633207001258,949.8633207001258,943.6413887001108,,,,,991,2022-11-25_14h12.08.665,test3,2022.2.4,None,
stimuli_position_map_2.csv,4.33281886087768,58.3193277310925,200.109243697479,singletons,248.378151260504,maps/google_map_1.png,None,objects/1/1_90.jpg,1,outdoors,TreeHouse.jpg,0,0,0,0,0,56,56,56,,,,,,,,,,,,,,,,,,,,,949.8633207001258,950.467118000146,950.8631955001038,951.354946100153,951.8634423001204,952.3547900000121,952.8550927999895,953.3488058000803,953.9986612000503,953.9986612000503,955.3883253000677,955.3883253000677,955.3883253000677,a,0.4741195000242442,955.871839000145,955.871839000145,955.871839000145,956.8631290001795,956.8631290001795,956.8631290001795,950.467118000146,,,,,991,2022-11-25_14h12.08.665,test3,2022.2.4,None,
stimuli_position_map_2.csv,0.810431285663084,148.319327731092,328.319327731092,low,46.4578444010685,maps/google_map_1.png,11.8614833300239,objects/1/1_90.jpg,1,outdoors,TreeHouse.jpg,0,0,0,0,0,57,57,57,,,,,,,,,,,,,,,,,,,,,956.8631290001795,957.4642610000446,957.8631911000703,958.3550084000453,958.8633234000299,959.3550410000607,959.8633260000497,960.3549411999993,960.9927251001354,960.9927251001354,962.3882611000445,962.3882611000445,962.3882611000445,a,0.31826950004324317,962.7217068001628,962.7217068001628,962.7217068001628,963.7134287999943,963.7134287999943,963.7134287999943,957.4642610000446,,,,,991,2022-11-25_14h12.08.665,test3,2022.2.4,None,
stimuli_position_map_2.csv,0.828998703699914,148.319327731092,328.319327731092,low,47.5222186834346,maps/google_map_1.png,10.7971090476579,objects/1/1_124.jpg,0,outdoors,Window.jpg,0,0,0,0,0,58,58,58,,,,,,,,,,,,,,,,,,,,,963.7134287999943,964.3127741999924,964.7133862001356,965.2050146001857,965.7134367001709,966.2057265001349,966.713506200118,967.2050408001523,967.8665012000129,967.8665012000129,969.2384447001386,969.2384447001386,969.2384447001386,a,0.4466774999164045,969.6967995001469,969.6967995001469,969.6967995001469,970.688660300104,970.688660300104,970.688660300104,964.3127741999924,,,,,991,2022-11-25_14h12.08.665,test3,2022.2.4,None,
stimuli_position_map_2.csv,3.10577879993738,148.319327731092,328.319327731092,medium,178.038275155646,maps/google_map_1.png,119.718947424553,objects/1/1_95.jpg,0,indoors,Lens_Camera.jpg,0,0,0,0,0,59,59,59,,,,,,,,,,,,,,,,,,,,,970.688660300104,971.2977428000886,971.6884932001121,972.1801351001486,972.6885916001629,973.1799668001477,973.6885848999955,974.1801774001215,974.8303041001782,974.8303041001782,976.2135311001912,976.2135311001912,976.2135311001912,l,0.5787758999504149,976.8049722001888,976.8049722001888,976.8049722001888,977.7969125001691,977.7969125001691,977.7969125001691,971.2977428000886,,,,,991,2022-11-25_14h12.08.665,test3,2022.2.4,None,
stimuli_position_map_2.csv,3.15339421461829,148.319327731092,328.319327731092,medium,180.767821220157,maps/google_map_1.png,122.448493489064,objects/1/1_11.jpg,0,indoors,VacuumHandheld.jpg,0,0,0,0,0,60,60,60,,,,,,,,,,,,,,,,,,,,,977.7969125001691,978.3951676001307,978.7885631001554,979.2802375000902,979.7886605001986,980.2800646000542,980.7884522001259,981.2802527002059,981.9397556001786,981.9397556001786,983.3219907002058,983.3219907002058,983.3219907002058,l,0.2846652998123318,983.6219914001413,983.6219914001413,983.6219914001413,984.6134841002058,984.6134841002058,984.6134841002058,978.3951676001307,,,,,991,2022-11-25_14h12.08.665,test3,2022.2.4,None,
stimuli_position_map_2.csv,5.59585527544351,238.319327731092,230.27731092437,singletons,320.781512605042,maps/google_map_1.png,None,objects/2/2_38.jpg,1,outdoors,Megaphone.jpg,0,0,0,0,0,61,61,61,,,,,,,,,,,,,,,,,,,,,984.6134841002058,985.2137854001485,985.6136534002144,986.1051829000935,986.6136151000392,987.1049165001605,987.6136977002025,988.1052271001972,988.7474905001,988.7474905001,990.1387207000516,990.1387207000516,990.1387207000516,l,0.27067240001633763,990.4220248002093,990.4220248002093,990.4220248002093,991.4134816001169,991.4134816001169,991.4134816001169,985.2137854001485,,,,,991,2022-11-25_14h12.08.665,test3,2022.2.4,None,
stimuli_position_map_2.csv,1.21352632714387,148.319327731092,328.319327731092,low,69.5652034668463,maps/google_map_1.png,11.2458757357538,objects/2/2_54.jpg,1,indoors,Bottle_Oil.jpg,0,0,0,0,0,62,62,62,,,,,,,,,,,,,,,,,,,,,991.4134816001169,992.0137774001341,992.4135955001693,992.905767200049,993.4051103000529,993.8969571001362,994.405197400134,994.8970893002115,995.5491953000892,995.5491953000892,996.9386295999866,996.9386295999866,996.9386295999866,l,0.3789091999642551,997.3332818001509,997.3332818001509,997.3332818001509,,,,992.0137774001341,,,,,991,2022-11-25_14h12.08.665,test3,2022.2.4,None,
stimuli_position_map_2.csv,2.98330112006309,148.319327731092,328.319327731092,medium,171.017261659668,maps/google_map_1.png,112.697933928575,objects/1/1_57.jpg,0,indoors,Spoon_Wooden.jpg,0,0,0,0,0,63,63,63,,,,,,,,,,,,,,,,,,,,,998.330703600077,998.9310093000531,999.3221368000377,999.8137151000556,1000.3220179001801,1000.8136343001388,1001.3219045000151,1001.8137030000798,1002.4641592002008,1002.4641592002008,1003.8469786001369,1003.8469786001369,1003.8469786001369,l,0.5495032998733222,1004.4053713001776,1004.4053713001776,1004.4053713001776,1005.3970100001898,1005.3970100001898,1005.3970100001898,998.9310093000531,,,,,991,2022-11-25_14h12.08.665,test3,2022.2.4,None,
stimuli_position_map_2.csv,0.543709617180205,58.3193277310925,88.4873949579832,singletons,31.1680672268908,maps/google_map_1.png,None,objects/1/1_87.jpg,1,indoors,MouthGuard.jpg,0,0,0,0,0,64,64,64,,,,,,,,,,,,,,,,,,,,,1005.3970100001898,1006.0005952999927,1006.3887493000366,1006.8804037000518,1007.3970723000821,1007.8888727000449,1008.3969586000312,1008.8887604000047,1009.530926000094,1009.530926000094,1010.9232487999834,1010.9232487999834,1010.9232487999834,l,0.4932675997260958,1011.4302580000367,1011.4302580000367,1011.4302580000367,1012.4219278001692,1012.4219278001692,1012.4219278001692,1006.0005952999927,,,,,991,2022-11-25_14h12.08.665,test3,2022.2.4,None,
stimuli_position_map_2.csv,2.84677997641991,148.319327731092,328.319327731092,medium,163.191208839358,maps/google_map_1.png,104.871881108265,objects/1/1_105.jpg,0,indoors,Horn_French.jpg,0,0,0,0,0,65,65,65,,,,,,,,,,,,,,,,,,,,,1012.4219278001692,1013.0248229000717,1013.4220583999995,1013.9136974001303,1014.4219619000796,1014.9136222000234,1015.4221879001707,1015.9136804000009,1016.5703794001602,1016.5703794001602,1017.9471545000561,1017.9471545000561,1017.9471545000561,l,1.2039998997934163,1019.1636350001208,1019.1636350001208,1019.1636350001208,1020.1553645001259,1020.1553645001259,1020.1553645001259,1013.0248229000717,,,,,991,2022-11-25_14h12.08.665,test3,2022.2.4,None,
stimuli_position_map_2.csv,3.21146245196721,148.319327731092,328.319327731092,medium,184.096573679649,maps/google_map_1.png,125.777245948557,objects/1/1_65.jpg,0,outdoors,Telephone_Booth.jpg,0,0,0,0,0,66,66,66,,,,,,,,,,,,,,,,,,,,,1020.1553645001259,1020.7579954999965,1021.1552626001649,1021.6472671001684,1022.1553478001151,1022.6471845000051,1023.155463400064,1023.6470245001838,1024.2939156000502,1024.2939156000502,1025.6805170001462,1025.6805170001462,1025.6805170001462,a,0.24928979971446097,1025.9389391001314,1025.9389391001314,1025.9389391001314,1026.930539000081,1026.930539000081,1026.930539000081,1020.7579954999965,,,,,991,2022-11-25_14h12.08.665,test3,2022.2.4,None,
stimuli_position_map_2.csv,4.22756582633053,328.319327731092,46.2521008403361,singletons,242.344537815126,maps/google_map_1.png,None,objects/1/1_77.jpg,0,outdoors,Cannon.jpg,0,0,0,0,0,67,67,67,,,,,,,,,,,,,,,,,,,,,1026.930539000081,1027.5296193000395,1027.9221483999863,1028.413879300002,1028.9304773001932,1029.4222276001237,1029.9222325000446,1030.41385680018,1031.0721449002158,1031.0721449002158,1032.4554371000268,1032.4554371000268,1032.4554371000268,a,0.4666239998769015,1032.9312515000347,1032.9312515000347,1032.9312515000347,1033.9222757001407,1033.9222757001407,1033.9222757001407,1027.5296193000395,,,,,991,2022-11-25_14h12.08.665,test3,2022.2.4,None,
stimuli_position_map_2.csv,0.919983838034512,148.319327731092,328.319327731092,low,52.7379270210867,maps/google_map_1.png,5.58140071000573,objects/2/2_38.jpg,1,outdoors,Megaphone.jpg,0,0,0,0,0,68,68,68,,,,,,,,,,,,,,,,,,,,,1033.9222757001407,1034.5232602001633,1034.922163200099,1035.4136966001242,1035.9222738000099,1036.4138334000017,1036.9224090999924,1037.4137821001932,1038.0598240001127,1038.0598240001127,1039.4474431001581,1039.4474431001581,1039.4474431001581,l,0.44993490003980696,1039.9056419001427,1039.9056419001427,1039.9056419001427,1040.8974945000373,1040.8974945000373,1040.8974945000373,1034.5232602001633,,,,,991,2022-11-25_14h12.08.665,test3,2022.2.4,None,
stimuli_position_map_2.csv,1.61091051948466,148.319327731092,328.319327731092,low,92.3451890150443,maps/google_map_1.png,34.0258612839519,objects/1/1_115.jpg,0,indoors,Bottle_CosmeticSpray.jpg,0,0,0,0,0,69,69,69,,,,,,,,,,,,,,,,,,,,,1040.8974945000373,1041.4976473001298,1041.8890123001765,1042.380462500034,1042.8971222001128,1043.3891148001421,1043.8971183001995,1044.3890721001662,1045.0427133000921,1045.0427133000921,1046.4221550000366,1046.4221550000366,1046.4221550000366,l,0.4682210998144001,1046.9055399000645,1046.9055399000645,1046.9055399000645,1047.8975569000468,1047.8975569000468,1047.8975569000468,1041.4976473001298,,,,,991,2022-11-25_14h12.08.665,test3,2022.2.4,None,
stimuli_position_map_2.csv,4.94202480960432,148.319327731092,328.319327731092,high,283.300785263942,maps/google_map_1.png,135.018542467151,objects/1/1_1.jpg,0,indoors,Mat_Door.jpg,0,0,0,0,0,70,70,70,,,,,,,,,,,,,,,,,,,,,1047.8975569000468,1048.5051574001554,1048.8973985000048,1049.3890383001417,1049.897542100167,1050.389156700112,1050.8888563001528,1051.3807434001938,1052.0422726999968,1052.0422726999968,1053.4226369000971,1053.4226369000971,1053.4226369000971,l,0.562245599925518,1053.9975009001791,1053.9975009001791,1053.9975009001791,1054.9897836002056,1054.9897836002056,1054.9897836002056,1048.5051574001554,,,,,991,2022-11-25_14h12.08.665,test3,2022.2.4,None,
stimuli_position_map_2.csv,0.908222880428627,148.319327731092,328.319327731092,low,52.0637319990932,maps/google_map_1.png,6.25559573199918,objects/2/2_38.jpg,1,outdoors,Megaphone.jpg,0,0,0,0,0,71,71,71,,,,,,,,,,,,,,,,,,,,,1054.9897836002056,1055.591820700094,1055.9889416000806,1056.4808728999924,1056.9891065000556,1057.4806764000095,1057.989121900173,1058.4809336999897,1059.125085100066,1059.125085100066,1060.5139775001444,1060.5139775001444,1060.5139775001444,l,0.546180099947378,1061.0724429001566,1061.0724429001566,1061.0724429001566,1062.0639526001178,1062.0639526001178,1062.0639526001178,1055.591820700094,,,,,991,2022-11-25_14h12.08.665,test3,2022.2.4,None,
stimuli_position_map_2.csv,3.74303809754345,148.319327731092,328.319327731092,high,214.569062916503,maps/google_map_1.png,156.249735185411,objects/1/1_16.jpg,0,indoors,Mask_Ski.jpg,0,0,0,0,0,72,72,72,,,,,,,,,,,,,,,,,,,,,1062.0639526001178,1062.663324400084,1063.0639774000738,1063.5558021001052,1064.0640090000816,1064.5556667000055,1065.0639898001682,1065.5558819000144,1066.2071436000988,1066.2071436000988,1067.5892064000946,1067.5892064000946,1067.5892064000946,l,0.3080273999366909,1067.9056524999905,1067.9056524999905,1067.9056524999905,1068.897591700079,1068.897591700079,1068.897591700079,1062.663324400084,,,,,991,2022-11-25_14h12.08.665,test3,2022.2.4,None,
stimuli_position_map_2.csv,2.40552632683217,148.319327731092,328.319327731092,medium,137.89641364006,maps/google_map_1.png,79.577085908968,objects/1/1_102.jpg,0,outdoors,Jetski.jpg,0,0,0,0,0,73,73,73,,,,,,,,,,,,,,,,,,,,,1068.897591700079,1069.5023048000876,1069.8974924001377,1070.3892638001125,1070.897268500179,1071.3892785999924,1071.897408900084,1072.389263600111,1073.038484300021,1073.038484300021,1074.4225797001272,1074.4225797001272,1074.4225797001272,a,0.30574549990706146,1074.7392558001447,1074.7392558001447,1074.7392558001447,1075.7310297000222,1075.7310297000222,1075.7310297000222,1069.5023048000876,,,,,991,2022-11-25_14h12.08.665,test3,2022.2.4,None,
stimuli_position_map_2.csv,1.00759299535782,148.319327731092,328.319327731092,low,57.7601080141423,maps/google_map_1.png,0.559219716950109,objects/1/1_33.jpg,0,indoors,JuicerCitrus.jpg,0,0,0,0,0,74,74,74,,,,,,,,,,,,,,,,,,,,,1075.7310297000222,1076.3321629001293,1076.7308432001155,1077.2222010002006,1077.7309311002027,1078.2224030999932,1078.730965099996,1079.2226623001043,1079.8745478000492,1079.8745478000492,1081.2559993001632,1081.2559993001632,1081.2559993001632,l,0.8171806000173092,1082.0894391001202,1082.0894391001202,1082.0894391001202,1083.0809813002124,1083.0809813002124,1083.0809813002124,1076.3321629001293,,,,,991,2022-11-25_14h12.08.665,test3,2022.2.4,None,
stimuli_position_map_2.csv,0.97575514663825,148.319327731092,328.319327731092,low,55.9350084060143,maps/google_map_1.png,2.38431932507811,objects/1/1_56.jpg,0,indoors,SafetyPin.jpg,0,0,0,0,0,75,75,75,,,,,,,,,,,,,,,,,,,,,1083.0809813002124,1083.6806308000814,1084.0810123002157,1084.5725412000902,1085.0810750999954,1085.5725842001848,1086.0813148000743,1086.5726607001852,1087.2323376000859,1087.2323376000859,1088.6059723000508,1088.6059723000508,1088.6059723000508,l,1.1487586998846382,1089.7642677000258,1089.7642677000258,1089.7642677000258,1090.7569786000531,1090.7569786000531,1090.7569786000531,1083.6806308000814,,,,,991,2022-11-25_14h12.08.665,test3,2022.2.4,None,
stimuli_position_map_2.csv,2.4140503084802,148.319327731092,328.319327731092,medium,138.385049530712,maps/google_map_1.png,80.0657217996195,objects/1/1_46.jpg,0,outdoors,SiloGrain.jpg,0,0,0,0,0,76,76,76,,,,,,,,,,,,,,,,,,,,,1090.7569786000531,1091.3550952000078,1091.756052599987,1092.247833200032,1092.755931599997,1093.247955400031,1093.7559799000155,1094.2479271001648,1094.903823000146,1094.903823000146,1096.2808647002093,1096.2808647002093,1096.2808647002093,a,0.5585332999471575,1096.8477432001382,1096.8477432001382,1096.8477432001382,1097.839527200209,1097.839527200209,1097.839527200209,1091.3550952000078,,,,,991,2022-11-25_14h12.08.665,test3,2022.2.4,None,
stimuli_position_map_2.csv,1.14690888584799,148.319327731092,328.319327731092,low,65.7463692524324,maps/google_map_1.png,7.42704152133999,objects/1/1_70.jpg,0,indoors,Aquarium.jpg,0,0,0,0,0,77,77,77,,,,,,,,,,,,,,,,,,,,,1097.839527200209,1098.4400110000279,1098.8392614000477,1099.3310673001688,1099.839365700027,1100.3311182002071,1100.8394392000046,1101.3310607001185,1101.9850535001606,1101.9850535001606,1103.3644403000362,1103.3644403000362,1103.3644403000362,l,0.19484559982083738,1103.5727788000368,1103.5727788000368,1103.5727788000368,1104.5642938001547,1104.5642938001547,1104.5642938001547,1098.4400110000279,,,,,991,2022-11-25_14h12.08.665,test3,2022.2.4,None,
stimuli_position_map_2.csv,3.46330671199857,148.319327731092,328.319327731092,high,198.533505783358,maps/google_map_1.png,140.214178052265,objects/1/1_142.jpg,0,indoors,Ball_Disco.jpg,0,0,0,0,0,78,78,78,,,,,,,,,,,,,,,,,,,,,1104.5642938001547,1105.1696752000134,1105.556278300006,1106.0478120001499,1106.556306600105,1107.047824600013,1107.5563236000016,1108.047681500204,1108.7120105000213,1108.7120105000213,1110.089501600014,1110.089501600014,1110.089501600014,l,0.4990600999444723,1110.5977509000804,1110.5977509000804,1110.5977509000804,1111.5895164001267,1111.5895164001267,1111.5895164001267,1105.1696752000134,,,,,991,2022-11-25_14h12.08.665,test3,2022.2.4,None,
stimuli_position_map_2.csv,1.11200298672419,148.319327731092,328.319327731092,low,63.745394143425,maps/google_map_1.png,5.42606641233261,objects/1/1_74.jpg,0,outdoors,Car_Buggy.jpg,0,0,0,0,0,79,79,79,,,,,,,,,,,,,,,,,,,,,1111.5895164001267,1112.188620600151,1112.5895431002136,1113.0822598000523,1113.5895194001496,1114.081210500095,1114.5896266000345,1115.081189500168,1115.7319393001962,1115.7319393001962,1117.114390200004,1117.114390200004,1117.114390200004,a,0.34100899985060096,1117.46438140003,1117.46438140003,1117.46438140003,1118.4559818999842,1118.4559818999842,1118.4559818999842,1112.188620600151,,,,,991,2022-11-25_14h12.08.665,test3,2022.2.4,None,
stimuli_position_map_2.csv,1.20677226185524,148.319327731092,328.319327731092,low,69.1780277496632,maps/google_map_1.png,10.8587000185708,objects/1/1_24.jpg,0,indoors,Box_FirstAid.jpg,0,0,0,0,0,80,80,80,,,,,,,,,,,,,,,,,,,,,1118.4559818999842,1119.0577202001587,1119.4479458001442,1119.939597700024,1120.4479657001793,1120.9396586001385,1121.447807900142,1121.9396616001613,1122.6020288001746,1122.6020288001746,1123.9810452000238,1123.9810452000238,1123.9810452000238,l,0.5265823998488486,1124.5229937001131,1124.5229937001131,1124.5229937001131,1125.5145486001857,1125.5145486001857,1125.5145486001857,1119.0577202001587,,,,,991,2022-11-25_14h12.08.665,test3,2022.2.4,None,
stimuli_position_map_2.csv,0.862203408103422,148.319327731092,328.319327731092,low,49.4256730759923,maps/google_map_1.png,8.8936546551001,objects/2/2_54.jpg,1,indoors,Bottle_Oil.jpg,0,0,0,0,0,81,81,81,,,,,,,,,,,,,,,,,,,,,1125.5145486001857,1126.1125639001839,1126.5144447002094,1127.0063119002152,1127.5063196001574,1127.9978170001414,1128.5147143001668,1129.006196900038,1129.6471111001447,1129.6471111001447,1131.039704499999,1131.039704499999,1131.039704499999,l,0.38160099973902106,1131.4311508000828,1131.4311508000828,1131.4311508000828,1132.4230786000844,1132.4230786000844,1132.4230786000844,1126.1125639001839,,,,,991,2022-11-25_14h12.08.665,test3,2022.2.4,None,
stimuli_position_map_2.csv,0.930463873814791,148.319327731092,328.319327731092,low,53.3386934033957,maps/google_map_1.png,4.98063432769676,objects/1/1_141.jpg,0,outdoors,Caterpillar.jpg,0,0,0,0,0,82,82,82,,,,,,,,,,,,,,,,,,,,,1132.4230786000844,1133.023382200161,1133.4229393000714,1133.9148309000302,1134.423073500162,1134.9144884999841,1135.422879200196,1135.914575900184,1136.565792400157,1136.565792400157,1137.9481313000433,1137.9481313000433,1137.9481313000433,a,0.2989685998763889,1138.2563962000422,1138.2563962000422,1138.2563962000422,1139.2489258002024,1139.2489258002024,1139.2489258002024,1133.023382200161,,,,,991,2022-11-25_14h12.08.665,test3,2022.2.4,None,
stimuli_position_map_2.csv,0.964721755368814,238.319327731092,191.058823529412,singletons,55.3025210084034,maps/google_map_1.png,None,objects/2/2_38.jpg,1,outdoors,Megaphone.jpg,0,0,0,0,0,83,83,83,,,,,,,,,,,,,,,,,,,,,1139.2489258002024,1139.85262050014,1140.2396987001412,1140.7313375000376,1141.2398266000673,1141.7313982001506,1142.2396991001442,1142.731394500006,1143.3832622000482,1143.3832622000482,1144.77307450003,1144.77307450003,1144.77307450003,l,0.23310309974476695,1145.0147440000437,1145.0147440000437,1145.0147440000437,1146.0064642000943,1146.0064642000943,1146.0064642000943,1139.85262050014,,,,,991,2022-11-25_14h12.08.665,test3,2022.2.4,None,
stimuli_position_map_2.csv,3.59061593094402,148.319327731092,328.319327731092,high,205.831486487237,maps/google_map_1.png,147.512158756144,objects/1/1_28.jpg,0,indoors,PaperCutter.jpg,0,0,0,0,0,84,84,84,,,,,,,,,,,,,,,,,,,,,1146.0064642000943,1146.6062372000888,1147.0064700001385,1147.4982174001634,1148.0066128000617,1148.4989221000578,1149.0064588000532,1149.4980636001565,1150.157661400037,1150.157661400037,1151.5314728000667,1151.5314728000667,1151.5314728000667,l,0.6874585000332445,1152.231399100041,1152.231399100041,1152.231399100041,1153.2229887000285,1153.2229887000285,1153.2229887000285,1146.6062372000888,,,,,991,2022-11-25_14h12.08.665,test3,2022.2.4,None,
stimuli_position_map_2.csv,0.691657706209344,148.319327731092,328.319327731092,low,39.6491678718732,maps/google_map_1.png,18.6701598592192,objects/1/1_26.jpg,0,indoors,JuiceBox.jpg,0,0,0,0,0,85,85,85,,,,,,,,,,,,,,,,,,,,,1153.2229887000285,1153.8295405001845,1154.214732900029,1154.7064599001314,1155.2147975000553,1155.7065274000634,1156.214867600007,1156.7064481000416,1157.3694513000082,1157.3694513000082,1158.7482410999946,1158.7482410999946,1158.7482410999946,l,1.637540099909529,1160.3980284000281,1160.3980284000281,1160.3980284000281,1161.389940300025,1161.389940300025,1161.389940300025,1153.8295405001845,,,,,991,2022-11-25_14h12.08.665,test3,2022.2.4,None,
stimuli_position_map_2.csv,1.0210732700788,148.319327731092,328.319327731092,low,58.532862615982,maps/google_map_1.png,0.213534884889627,objects/1/1_43.jpg,0,indoors,Printer.jpg,0,0,0,0,0,86,86,86,,,,,,,,,,,,,,,,,,,,,1161.389940300025,1161.99401650019,1162.3898424000945,1162.8815630001482,1163.3898530001752,1163.8814604000654,1164.3898916000035,1164.8816253000405,1165.5284026002046,1165.5284026002046,1166.9149412000552,1166.9149412000552,1166.9149412000552,l,0.2814813998993486,1167.206749400124,1167.206749400124,1167.206749400124,1168.1982336000074,1168.1982336000074,1168.1982336000074,1161.99401650019,,,,,991,2022-11-25_14h12.08.665,test3,2022.2.4,None,
stimuli_position_map_2.csv,0.993599381152617,148.319327731092,328.319327731092,low,56.9579263081118,maps/google_map_1.png,1.36140142298064,objects/1/1_2.jpg,0,indoors,ChessPiece_Knight.jpg,0,0,0,0,0,87,87,87,,,,,,,,,,,,,,,,,,,,,1168.1982336000074,1168.7998190000653,1169.198256800184,1169.6898270000238,1170.1982711001765,1170.6907815001905,1171.1982795000076,1171.690019800095,1172.3447128999978,1172.3447128999978,1173.7230587000959,1173.7230587000959,1173.7230587000959,l,0.1947742998600006,1173.931686400203,1173.931686400203,1173.931686400203,1174.923088400159,1174.923088400159,1174.923088400159,1168.7998190000653,,,,,991,2022-11-25_14h12.08.665,test3,2022.2.4,None,
stimuli_position_map_2.csv,4.29195730037083,148.319327731092,328.319327731092,high,246.035768811067,maps/google_map_1.png,172.283558920026,objects/1/1_64.jpg,0,indoors,Socks_Baby.jpg,0,0,0,0,0,88,88,88,,,,,,,,,,,,,,,,,,,,,1174.923088400159,1175.5256698001176,1175.914833900053,1176.4066324001178,1176.9147882000543,1177.4065800001845,1177.9150330000557,1178.4068383001722,1179.0671674001496,1179.0671674001496,1180.4483029001858,1180.4483029001858,1180.4483029001858,l,0.2291355999186635,1180.6899830000475,1180.6899830000475,1180.6899830000475,1181.681430600118,1181.681430600118,1181.681430600118,1175.5256698001176,,,,,991,2022-11-25_14h12.08.665,test3,2022.2.4,None,
stimuli_position_map_2.csv,4.51958145533483,148.319327731092,328.319327731092,high,259.084287248493,maps/google_map_1.png,159.235040482599,objects/1/1_80.jpg,0,outdoors,Airplane_Small.jpg,0,0,0,0,0,89,89,89,,,,,,,,,,,,,,,,,,,,,1181.681430600118,1182.2819421000313,1182.673218200216,1183.1650137000252,1183.673334500054,1184.1662155000959,1184.6815473001916,1185.1732768001966,1185.8201892999932,1185.8201892999932,1187.2069110001903,1187.2069110001903,1187.2069110001903,a,0.3165510999970138,1187.5316196000203,1187.5316196000203,1187.5316196000203,1188.5232174000703,1188.5232174000703,1188.5232174000703,1182.2819421000313,,,,,991,2022-11-25_14h12.08.665,test3,2022.2.4,None,
stimuli_position_map_2.csv,6.28,328.319327731092,169.941176470588,singletons,360.0,maps/google_map_1.png,None,objects/1/1_87.jpg,1,indoors,MouthGuard.jpg,0,0,0,0,0,90,90,90,,,,,,,,,,,,,,,,,,,,,1188.5232174000703,1189.1248477001209,1189.5233063001651,1190.0151845000219,1190.52326799999,1191.0150938001461,1191.5233552001882,1192.0153018001001,1192.6609090000857,1192.6609090000857,1194.048450900009,1194.048450900009,1194.048450900009,l,0.34187899995595217,1194.3984850000124,1194.3984850000124,1194.3984850000124,1195.3902534001973,1195.3902534001973,1195.3902534001973,1189.1248477001209,,,,,991,2022-11-25_14h12.08.665,test3,2022.2.4,None,
stimuli_position_map_2.csv,4.59030204690321,148.319327731092,328.319327731092,high,263.13833389891,maps/google_map_1.png,155.180993832182,objects/1/1_10.jpg,0,indoors,Playdoh.jpg,0,0,0,0,0,91,91,91,,,,,,,,,,,,,,,,,,,,,1195.3902534001973,1195.9884419001173,1196.3902410999872,1196.8817353001796,1197.3816521000117,1197.8734415001236,1198.3899274000432,1198.8818489999976,1199.5248311001342,1199.5248311001342,1200.9153808001429,1200.9153808001429,1200.9153808001429,l,0.48922659968957305,1201.4151473001111,1201.4151473001111,1201.4151473001111,1202.4068887000903,1202.4068887000903,1202.4068887000903,1195.9884419001173,,,,,991,2022-11-25_14h12.08.665,test3,2022.2.4,None,
stimuli_position_map_2.csv,1.26504088448031,148.319327731092,328.319327731092,low,72.5182672632026,maps/google_map_1.png,14.1989395321101,objects/1/1_68.jpg,0,outdoors,Seal_Toy.jpg,0,0,0,0,0,92,92,92,,,,,,,,,,,,,,,,,,,,,1202.4068887000903,1203.0102948001586,1203.4067499001976,1203.8984770001844,1204.4069451000541,1204.8985075000674,1205.4069709000178,1205.8985705000814,1206.5524538001046,1206.5524538001046,1207.931986300042,1207.931986300042,1207.931986300042,a,0.2041163998655975,1208.1485892999917,1208.1485892999917,1208.1485892999917,1209.1401476000901,1209.1401476000901,1209.1401476000901,1203.0102948001586,,,,,991,2022-11-25_14h12.08.665,test3,2022.2.4,None,
stimuli_position_map_2.csv,1.01053946248016,148.319327731092,328.319327731092,low,57.9290137727483,maps/google_map_1.png,0.390313958344144,objects/2/2_54.jpg,1,indoors,Bottle_Oil.jpg,0,0,0,0,0,93,93,93,,,,,,,,,,,,,,,,,,,,,1209.1401476000901,1209.7444459002,1210.14017470018,1210.6326138000004,1211.1403326999862,1211.6319136000238,1212.1403848000336,1212.6319786000531,1213.2704437000211,1213.2704437000211,1214.66533850017,1214.66533850017,1214.66533850017,l,0.28162139980122447,1214.957505500177,1214.957505500177,1214.957505500177,1215.9485015000682,1215.9485015000682,1215.9485015000682,1209.7444459002,,,,,991,2022-11-25_14h12.08.665,test3,2022.2.4,None,
stimuli_position_map_2.csv,2.07574029462206,148.319327731092,328.319327731092,medium,118.991481857316,maps/google_map_1.png,60.6721541262232,objects/1/1_107.jpg,0,outdoors,Sled.jpg,0,0,0,0,0,94,94,94,,,,,,,,,,,,,,,,,,,,,1215.9485015000682,1216.5525417001918,1216.9486844001804,1217.4402605001815,1217.9487486002035,1218.4402552000247,1218.9485177001916,1219.4402545001358,1220.0909083001316,1220.0909083001316,1221.4736097001005,1221.4736097001005,1221.4736097001005,a,0.3998163999058306,1221.8820224001538,1221.8820224001538,1221.8820224001538,1222.873688600026,1222.873688600026,1222.873688600026,1216.5525417001918,,,,,991,2022-11-25_14h12.08.665,test3,2022.2.4,None,
stimuli_position_map_2.csv,3.45664551864638,148.319327731092,328.319327731092,high,198.151653935143,maps/google_map_1.png,139.83232620405,objects/1/1_53.jpg,0,indoors,Compact_Powder.jpg,0,0,0,0,0,95,95,95,,,,,,,,,,,,,,,,,,,,,1222.873688600026,1223.4750830000266,1223.8651660000905,1224.3569138001185,1224.8736755000427,1225.365536400117,1225.8738282001577,1226.3654620000161,1227.0160644000862,1227.0160644000862,1228.3902165000327,1228.3902165000327,1228.3902165000327,l,0.6052112998440862,1229.0070338000078,1229.0070338000078,1229.0070338000078,1229.9987339000218,1229.9987339000218,1229.9987339000218,1223.4750830000266,,,,,991,2022-11-25_14h12.08.665,test3,2022.2.4,None,
stimuli_position_map_2.csv,1.78287787307646,148.319327731092,328.319327731092,low,102.203190176358,maps/google_map_1.png,43.8838624452654,objects/1/1_90.jpg,1,outdoors,TreeHouse.jpg,0,0,0,0,0,96,96,96,,,,,,,,,,,,,,,,,,,,,1229.9987339000218,1230.5976208001375,1230.998710700078,1231.4904537000693,1231.9987223001663,1232.4903812999837,1232.998779000016,1233.490306199994,1234.1318179999944,1234.1318179999944,1235.5236863000318,1235.5236863000318,1235.5236863000318,a,0.3298390998970717,1235.8655115000438,1235.8655115000438,1235.8655115000438,1236.8568973999936,1236.8568973999936,1236.8568973999936,1230.5976208001375,,,,,991,2022-11-25_14h12.08.665,test3,2022.2.4,None,
stimuli_position_map_2.csv,1.54940086430444,148.319327731092,328.319327731092,low,88.8191578263694,maps/google_map_1.png,30.499830095277,objects/1/1_60.jpg,0,outdoors,Flags_CheckeredRacing.jpg,0,0,0,0,0,97,97,97,,,,,,,,,,,,,,,,,,,,,1236.8568973999936,1237.459113500081,1237.85689870012,1238.3487258001696,1238.856981500052,1239.3487586001866,1239.8571916001383,1240.3487958000042,1240.9953334000893,1240.9953334000893,1242.3819177001715,1242.3819177001715,1242.3819177001715,a,1.0644225997384638,1243.4570932001807,1243.4570932001807,1243.4570932001807,1244.448945300188,1244.448945300188,1244.448945300188,1237.459113500081,,,,,991,2022-11-25_14h12.08.665,test3,2022.2.4,None,
stimuli_position_map_2.csv,2.01725210084034,328.319327731092,356.983193277311,singletons,115.638655462185,maps/google_map_1.png,None,objects/1/1_31.jpg,0,indoors,Shirt_Tshirt.jpg,0,0,0,0,0,98,98,98,,,,,,,,,,,,,,,,,,,,,1244.448945300188,1245.0480137001723,1245.4488620001357,1245.9405025001615,1246.4487674999982,1246.9404825000092,1247.4488252000883,1247.9405803000554,1248.5943655001465,1248.5943655001465,1249.9738188001793,1249.9738188001793,1249.9738188001793,l,0.2694969999138266,1250.2571594000328,1250.2571594000328,1250.2571594000328,1251.24892680021,1251.24892680021,1251.24892680021,1245.0480137001723,,,,,991,2022-11-25_14h12.08.665,test3,2022.2.4,None,
stimuli_position_map_2.csv,1.28643386460703,148.319327731092,328.319327731092,low,73.7446164424411,maps/google_map_1.png,15.4252887113486,objects/2/2_38.jpg,1,outdoors,Megaphone.jpg,0,0,0,0,0,99,99,99,,,,,,,,,,,,,,,,,,,,,1251.24892680021,1251.8496424001642,1252.2489345001522,1252.740519599989,1253.2487459001131,1253.740381400101,1254.2488948001992,1254.7405503999908,1255.384519400075,1255.384519400075,1256.7737263001036,1256.7737263001036,1256.7737263001036,l,0.42779230000451207,1257.2155532001052,1257.2155532001052,1257.2155532001052,1258.2073551001959,1258.2073551001959,1258.2073551001959,1251.8496424001642,,,,,991,2022-11-25_14h12.08.665,test3,2022.2.4,None,
stimuli_position_map_2.csv,,,,,,,,,,,,0,0,0,0,,,,,,,,,,,,,,,,,,,,,,,,,,,,,,,,,,,,,,,,,,,,,,,1258.2073551001959,1258.2073551001959,space,272.2650965000503,991,2022-11-25_14h12.08.665,test3,2022.2.4,None,
stimuli_position_map_1.csv,5.57231597499423,71.8991596638655,251.899159663866,low,319.432125955084,maps/google_map_1.png,22.467033708782,objects/1/1_140.jpg,0,outdoors,LifeJacket_BlueYellow.jpg,0,1,1,1,0,0,0,0,,,,,,,,,,,,,,,,,,,,,1530.49005280016,1531.094712600112,1531.4756654000375,1531.9673431999981,1532.4674492999911,1532.9591695000418,1533.4758677000646,1533.967416800093,1534.6198862001766,1534.6198862001766,1536.001015700167,1536.001015700167,1536.001015700167,l,1.1686340998858213,1537.1843819001224,1537.1843819001224,1537.1843819001224,1538.17573610018,1538.17573610018,1538.17573610018,,,,,,991,2022-11-25_14h12.08.665,test3,2022.2.4,None,
stimuli_position_map_1.csv,6.06383294252329,71.8991596638655,251.899159663866,low,347.608257851653,maps/google_map_1.png,5.70909818778788,objects/1/1_104.jpg,0,indoors,Pitcher.jpg,0,1,1,1,0,1,1,1,,,,,,,,,,,,,,,,,,,,,1538.17573610018,1538.782639699988,1539.1757516001817,1539.667470100103,1540.1759705999866,1540.6675261000637,1541.176066200016,1541.6674848000985,1542.3213536001276,1542.3213536001276,1543.7007689001039,1543.7007689001039,1543.7007689001039,l,0.35311269969679415,1544.067499600118,1544.067499600118,1544.067499600118,1545.0594349000603,1545.0594349000603,1545.0594349000603,1538.782639699988,,,,,991,2022-11-25_14h12.08.665,test3,2022.2.4,None,
stimuli_position_map_1.csv,6.05519689085597,71.8991596638655,251.899159663866,low,347.113197564992,maps/google_map_1.png,5.21403790112609,objects/2/2_3.jpg,1,outdoors,ColumnMarble.jpg,0,1,1,1,0,2,2,2,,,,,,,,,,,,,,,,,,,,,1545.0594349000603,1545.659262600122,1546.0593968001194,1546.5511661001947,1547.0594471001532,1547.5511851999909,1548.0595442000777,1548.5510538001545,1549.1944399001077,1549.1944399001077,1550.5844251001254,1550.5844251001254,1550.5844251001254,a,0.567886299919337,1551.1675859000534,1551.1675859000534,1551.1675859000534,1552.1592801001389,1552.1592801001389,1552.1592801001389,1545.659262600122,,,,,991,2022-11-25_14h12.08.665,test3,2022.2.4,None,
stimuli_position_map_1.csv,6.00356653540225,71.8991596638655,251.899159663866,low,344.153495660002,maps/google_map_1.png,2.25433599613627,objects/1/1_9.jpg,0,indoors,Fridge.jpg,0,1,1,1,0,3,3,3,,,,,,,,,,,,,,,,,,,,,1552.1592801001389,1552.7615851000883,1553.15950910002,1553.651232600212,1554.159481300041,1554.6509509000462,1555.1593490000814,1555.651031400077,1556.304521500133,1556.304521500133,1557.6843209001236,1557.6843209001236,1557.6843209001236,l,0.23972229985520244,1557.9344591000117,1557.9344591000117,1557.9344591000117,1558.9258119000588,1558.9258119000588,1558.9258119000588,1552.7615851000883,,,,,991,2022-11-25_14h12.08.665,test3,2022.2.4,None,
stimuli_position_map_1.csv,5.69224489365122,71.8991596638655,251.899159663866,low,326.307032120133,maps/google_map_1.png,15.5921275437321,objects/2/2_38.jpg,1,outdoors,Megaphone.jpg,0,1,1,1,0,4,4,4,,,,,,,,,,,,,,,,,,,,,1558.9258119000588,1559.5296154001262,1559.9258352001198,1560.4175284001976,1560.9260277000722,1561.417790000094,1561.9258686001413,1562.417659000028,1563.0604784002062,1563.0604784002062,1564.4512340000365,1564.4512340000365,1564.4512340000365,l,0.36440299986861646,1564.8258982000407,1564.8258982000407,1564.8258982000407,1565.8186407000758,1565.8186407000758,1565.8186407000758,1559.5296154001262,,,,,991,2022-11-25_14h12.08.665,test3,2022.2.4,None,
stimuli_position_map_1.csv,5.5995671402764,71.8991596638655,251.899159663866,low,320.994294665526,maps/google_map_1.png,20.9048649983393,objects/1/1_96.jpg,0,outdoors,Backpack_Travel.jpg,0,1,1,1,0,5,5,5,,,,,,,,,,,,,,,,,,,,,1565.8186407000758,1566.4159559002146,1566.81759770005,1567.309487099992,1567.8094934001565,1568.3010397001635,1568.8095918002073,1569.3011985002086,1569.9674931000918,1569.9674931000918,1571.342945100041,1571.342945100041,1571.342945100041,l,2.204166399780661,1573.5598629000597,1573.5598629000597,1573.5598629000597,1574.5538459999952,1574.5538459999952,1574.5538459999952,1566.4159559002146,,,,,991,2022-11-25_14h12.08.665,test3,2022.2.4,None,
stimuli_position_map_1.csv,6.06517690828814,71.8991596638655,251.899159663866,low,347.685300475116,maps/google_map_1.png,5.78614081125085,objects/2/2_54.jpg,1,indoors,Bottle_Oil.jpg,0,1,1,1,0,6,6,6,,,,,,,,,,,,,,,,,,,,,1574.5538459999952,1575.1547315001953,1575.5511789000593,1576.0425860001706,1576.5510820001364,1577.0429815000389,1577.5512446002103,1578.0429963001516,1578.6821153000928,1578.6821153000928,1580.0760960001498,1580.0760960001498,1580.0760960001498,l,0.16110909986309707,1580.251223300118,1580.251223300118,1580.251223300118,1581.2429731001612,1581.2429731001612,1581.2429731001612,1575.1547315001953,,,,,991,2022-11-25_14h12.08.665,test3,2022.2.4,None,
stimuli_position_map_1.csv,5.41352391396646,71.8991596638655,251.899159663866,low,310.329396342027,maps/google_map_1.png,31.5697633218389,objects/1/1_129.jpg,0,indoors,Shoes_DutchClogs.jpg,0,1,1,1,0,7,7,7,,,,,,,,,,,,,,,,,,,,,1581.2429731001612,1581.8440673002042,1582.2427018000744,1582.734729200136,1583.2429794000927,1583.7352324000094,1584.242990200175,1584.7344905000646,1585.389580800198,1585.389580800198,1586.767666600179,1586.767666600179,1586.767666600179,l,0.43046129983849823,1587.2098019002005,1587.2098019002005,1587.2098019002005,1588.2013600000646,1588.2013600000646,1588.2013600000646,1581.8440673002042,,,,,991,2022-11-25_14h12.08.665,test3,2022.2.4,None,
stimuli_position_map_1.csv,5.47786870518455,71.8991596638655,251.899159663866,low,314.017951252617,maps/google_map_1.png,27.8812084112481,objects/1/1_128.jpg,0,outdoors,DogHouse.jpg,0,1,1,1,0,8,8,8,,,,,,,,,,,,,,,,,,,,,1588.2013600000646,1588.8040415002033,1589.2014421001077,1589.6929321000353,1590.2013340999838,1590.6928754001856,1591.2013440001756,1591.6928686001338,1592.3470211999957,1592.3470211999957,1593.7263513000216,1593.7263513000216,1593.7263513000216,a,0.1691261997912079,1593.9098819000646,1593.9098819000646,1593.9098819000646,1594.9013370000757,1594.9013370000757,1594.9013370000757,1588.8040415002033,,,,,991,2022-11-25_14h12.08.665,test3,2022.2.4,None,
stimuli_position_map_1.csv,0.242326728338433,71.8991596638655,251.899159663866,low,13.891341114942,maps/google_map_1.png,31.9921814510765,objects/1/1_61.jpg,1,indoors,Bottle_Baby.jpg,0,1,1,1,0,9,9,9,,,,,,,,,,,,,,,,,,,,,1594.9013370000757,1595.5044049001299,1595.9013652000576,1596.3929309002124,1596.9016025001183,1597.3932654000819,1597.9016415001824,1598.3933265001979,1599.0433404000942,1599.0433404000942,1600.4266431999858,1600.4266431999858,1600.4266431999858,l,0.6203316999599338,1601.0595900001936,1601.0595900001936,1601.0595900001936,1602.051476499997,1602.051476499997,1602.051476499997,1595.5044049001299,,,,,991,2022-11-25_14h12.08.665,test3,2022.2.4,None,
stimuli_position_map_1.csv,6.2072471056701,71.8991596638655,251.899159663866,low,355.829451917395,maps/google_map_1.png,13.930292253529,objects/2/2_3.jpg,1,outdoors,ColumnMarble.jpg,0,1,1,1,0,10,10,10,,,,,,,,,,,,,,,,,,,,,1602.051476499997,1602.6504350001924,1603.0514260001946,1603.5431382001843,1604.0514202001505,1604.5430623001885,1605.0513764000498,1605.5432161001954,1606.1869842000306,1606.1869842000306,1607.576303300215,1607.576303300215,1607.576303300215,a,1.0119899997953326,1608.6014851001091,1608.6014851001091,1608.6014851001091,1609.593126800144,1609.593126800144,1609.593126800144,1602.6504350001924,,,,,991,2022-11-25_14h12.08.665,test3,2022.2.4,None,
stimuli_position_map_1.csv,5.85007882721952,71.8991596638655,251.899159663866,low,335.354837229145,maps/google_map_1.png,6.544322434721,objects/1/1_90.jpg,1,outdoors,TreeHouse.jpg,0,1,1,1,0,11,11,11,,,,,,,,,,,,,,,,,,,,,1609.593126800144,1610.1923516001552,1610.5931218999904,1611.0847382000647,1611.584602800198,1612.0763989000116,1612.5846806000918,1613.0765095001552,1613.7274631999899,1613.7274631999899,1615.117988300044,1615.117988300044,1615.117988300044,a,0.21716089989058673,1615.3515475001186,1615.3515475001186,1615.3515475001186,1616.3431987999938,1616.3431987999938,1616.3431987999938,1610.1923516001552,,,,,991,2022-11-25_14h12.08.665,test3,2022.2.4,None,
stimuli_position_map_1.csv,0.487479767717914,71.8991596638655,251.899159663866,low,27.9447000602626,maps/google_map_1.png,46.045540396397,objects/1/1_51.jpg,0,indoors,Toy_LambPlushie.jpg,0,1,1,1,0,12,12,12,,,,,,,,,,,,,,,,,,,,,1616.3431987999938,1616.9425392001867,1617.3429773000535,1617.834860800067,1618.336824200116,1618.8266513000708,1619.3378239001613,1619.835091800196,1620.4817511001602,1620.4817511001602,1621.8680615001358,1621.8680615001358,1621.8680615001358,l,0.4866110000293702,1622.3683579000644,1622.3683579000644,1622.3683579000644,1623.359895200003,1623.359895200003,1623.359895200003,1616.9425392001867,,,,,991,2022-11-25_14h12.08.665,test3,2022.2.4,None,
stimuli_position_map_1.csv,5.84575231590543,71.8991596638655,251.899159663866,low,335.106820656999,maps/google_map_1.png,6.79233900686653,objects/1/1_66.jpg,0,indoors,Headset.jpg,0,1,1,1,0,13,13,13,,,,,,,,,,,,,,,,,,,,,1623.359895200003,1623.9590306000318,1624.3597218000796,1624.851488800021,1625.3597309000324,1625.8517536001746,1626.3600142002106,1626.8515639000107,1627.4958114000037,1627.4958114000037,1628.8849695001263,1628.8849695001263,1628.8849695001263,l,0.2779061999171972,1629.1765963002108,1629.1765963002108,1629.1765963002108,1630.1683676000684,1630.1683676000684,1630.1683676000684,1623.9590306000318,,,,,991,2022-11-25_14h12.08.665,test3,2022.2.4,None,
stimuli_position_map_1.csv,5.80886038773308,71.8991596638655,251.899159663866,low,332.99199674903,maps/google_map_1.png,8.90716291483539,objects/1/1_29.jpg,0,outdoors,WateringCan_Antique.jpg,0,1,1,1,0,14,14,14,,,,,,,,,,,,,,,,,,,,,1630.1683676000684,1630.7819478001911,1631.1682996000163,1631.6598682000767,1632.1683736999985,1632.6607885002159,1633.1682244001422,1633.659814100014,1634.3137173000723,1634.3137173000723,1635.6932913002092,1635.6932913002092,1635.6932913002092,a,0.8588131999131292,1636.5682741000783,1636.5682741000783,1636.5682741000783,1637.5600288000423,1637.5600288000423,1637.5600288000423,1630.7819478001911,,,,,991,2022-11-25_14h12.08.665,test3,2022.2.4,None,
stimuli_position_map_1.csv,5.6841904283988,71.8991596638655,251.899159663866,low,325.845311182097,maps/google_map_1.png,16.0538484817685,objects/1/1_90.jpg,1,outdoors,TreeHouse.jpg,0,1,1,1,0,15,15,15,,,,,,,,,,,,,,,,,,,,,1637.5600288000423,1638.160276700044,1638.5598534001037,1639.0514374000486,1639.5599709001835,1640.0517172000837,1640.5517460000701,1641.0434440001845,1641.695668200031,1641.695668200031,1643.0849396002013,1643.0849396002013,1643.0849396002013,a,0.36073609977029264,1643.4599298001267,1643.4599298001267,1643.4599298001267,1644.4518633000553,1644.4518633000553,1644.4518633000553,1638.160276700044,,,,,991,2022-11-25_14h12.08.665,test3,2022.2.4,None,
stimuli_position_map_1.csv,5.96005565503041,71.8991596638655,251.899159663866,low,341.65924137117,maps/google_map_1.png,0.239918292695472,objects/2/2_38.jpg,1,outdoors,Megaphone.jpg,0,1,1,1,0,16,16,16,,,,,,,,,,,,,,,,,,,,,1644.4518633000553,1645.0522224002052,1645.4516378000844,1645.9431951001752,1646.4516559001058,1646.9435191000812,1647.4517862000503,1647.943440800067,1648.5869026000146,1648.5869026000146,1649.9766123001464,1649.9766123001464,1649.9766123001464,l,0.4921988998539746,1650.4850904000923,1650.4850904000923,1650.4850904000923,1651.4768074001186,1651.4768074001186,1651.4768074001186,1645.0522224002052,,,,,991,2022-11-25_14h12.08.665,test3,2022.2.4,None,
stimuli_position_map_1.csv,5.98986513451766,71.8991596638655,251.899159663866,low,343.368065036044,maps/google_map_1.png,1.46890537217867,objects/1/1_61.jpg,1,indoors,Bottle_Baby.jpg,0,1,1,1,0,17,17,17,,,,,,,,,,,,,,,,,,,,,1651.4768074001186,1652.0771194000263,1652.4767299999949,1652.9685812001117,1653.4767397001851,1653.9687163000926,1654.476884600008,1654.9696014001966,1655.6183155002072,1655.6183155002072,1657.0018585000653,1657.0018585000653,1657.0018585000653,l,0.2762134000658989,1657.2932924001943,1657.2932924001943,1657.2932924001943,1658.284971400164,1658.284971400164,1658.284971400164,1652.0771194000263,,,,,991,2022-11-25_14h12.08.665,test3,2022.2.4,None,
stimuli_position_map_1.csv,4.33281886087768,161.899159663866,290.613445378151,singletons,248.378151260504,maps/google_map_1.png,None,objects/1/1_35.jpg,0,indoors,Boardgame_Checkers.jpg,0,1,1,1,0,18,18,18,,,,,,,,,,,,,,,,,,,,,1658.284971400164,1658.886282300111,1659.2849487001076,1659.7768473001197,1660.27678750013,1660.7686869001482,1661.2852074000984,1661.776777600171,1662.4256435001735,1662.4256435001735,1663.8101439999882,1663.8101439999882,1663.8101439999882,l,0.21096480009146035,1664.0350541002117,1664.0350541002117,1664.0350541002117,1665.0268534000497,1665.0268534000497,1665.0268534000497,1658.886282300111,,,,,991,2022-11-25_14h12.08.665,test3,2022.2.4,None,
stimuli_position_map_1.csv,0.00876274572839,71.8991596638655,251.899159663866,low,0.502323003538285,maps/google_map_1.png,18.6031633396727,objects/1/1_49.jpg,0,outdoors,Squid_Orange.jpg,0,1,1,1,0,19,19,19,,,,,,,,,,,,,,,,,,,,,1665.0268534000497,1665.6302975001745,1666.0186579001602,1666.5101754001807,1667.018397100037,1667.510203000158,1668.018605899997,1668.5100703001954,1669.1695899001788,1669.1695899001788,1670.55200590007,1670.55200590007,1670.55200590007,a,0.4667416999582201,1671.0270182001404,1671.0270182001404,1671.0270182001404,1672.0184560001362,1672.0184560001362,1672.0184560001362,1665.6302975001745,,,,,991,2022-11-25_14h12.08.665,test3,2022.2.4,None,
stimuli_position_map_1.csv,5.4315788274337,71.8991596638655,251.899159663866,low,311.36439138155,maps/google_map_1.png,30.534768282316,objects/1/1_108.jpg,0,outdoors,Ambulance.jpg,0,1,1,1,0,20,20,20,,,,,,,,,,,,,,,,,,,,,1672.0184560001362,1672.6175268001389,1673.0185183000285,1673.5100780001376,1674.0184499002062,1674.5102127001155,1675.018449800089,1675.5104143000208,1676.160189300077,1676.160189300077,1677.5436498001218,1677.5436498001218,1677.5436498001218,a,0.4629771998152137,1678.0187268001027,1678.0187268001027,1678.0187268001027,1679.0102260001004,1679.0102260001004,1679.0102260001004,1672.6175268001389,,,,,991,2022-11-25_14h12.08.665,test3,2022.2.4,None,
stimuli_position_map_1.csv,1.12027884624798,71.8991596638655,251.899159663866,medium,64.2198064728139,maps/google_map_1.png,82.3206468089484,objects/1/1_79.jpg,0,outdoors,Bird_Falcon.jpg,0,1,1,1,0,21,21,21,,,,,,,,,,,,,,,,,,,,,1679.0102260001004,1679.611901300028,1680.0103844001424,1680.5020204000175,1681.010408700211,1681.5030472001527,1682.0104263999965,1682.5020583001897,1683.1495767000597,1683.1495767000597,1684.5351658000145,1684.5351658000145,1684.5351658000145,a,0.20027519995346665,1684.7435592000838,1684.7435592000838,1684.7435592000838,1685.735178500181,1685.735178500181,1685.735178500181,1679.611901300028,,,,,991,2022-11-25_14h12.08.665,test3,2022.2.4,None,
stimuli_position_map_1.csv,0.458964169780608,71.8991596638655,251.899159663866,low,26.3100479492068,maps/google_map_1.png,44.4108882853413,objects/1/1_52.jpg,0,indoors,Tray_Wooden.jpg,0,1,1,1,0,22,22,22,,,,,,,,,,,,,,,,,,,,,1685.735178500181,1686.3348424001597,1686.7351863000076,1687.2270653999876,1687.7352236001752,1688.227121700067,1688.7352919001132,1689.2270593000576,1689.8738091001287,1689.8738091001287,1691.2604733000044,1691.2604733000044,1691.2604733000044,l,0.2726322999224067,1691.5437174001709,1691.5437174001709,1691.5437174001709,1692.5353123000823,1692.5353123000823,1692.5353123000823,1686.3348424001597,,,,,991,2022-11-25_14h12.08.665,test3,2022.2.4,None,
stimuli_position_map_1.csv,0.486052985371945,71.8991596638655,251.899159663866,medium,27.8629099894745,maps/google_map_1.png,45.963750325609,objects/1/1_39.jpg,0,outdoors,SpiderWeb.jpg,0,1,1,1,0,23,23,23,,,,,,,,,,,,,,,,,,,,,1692.5353123000823,1693.1411015000194,1693.526986300014,1694.018623100128,1694.5270603999961,1695.0189015001524,1695.5270420000888,1696.019010500051,1696.6796128000133,1696.6796128000133,1698.0603936000261,1698.0603936000261,1698.0603936000261,a,1.2219140999950469,1699.2938427000772,1699.2938427000772,1699.2938427000772,1700.2853171001188,1700.2853171001188,1700.2853171001188,1693.1411015000194,,,,,991,2022-11-25_14h12.08.665,test3,2022.2.4,None,
stimuli_position_map_1.csv,5.17959802888803,71.8991596638655,251.899159663866,low,296.91963222925,maps/google_map_1.png,44.9795274346153,objects/1/1_69.jpg,0,indoors,Protractor.jpg,0,1,1,1,0,24,24,24,,,,,,,,,,,,,,,,,,,,,1700.2853171001188,1700.893999800086,1701.2853869001847,1701.777169200126,1702.2854150000494,1702.7772536000703,1703.2853268000763,1703.7782037002034,1704.4269863001537,1704.4269863001537,1705.8103372000623,1705.8103372000623,1705.8103372000623,l,0.37345239985734224,1706.19372820016,1706.19372820016,1706.19372820016,1707.185421400005,1707.185421400005,1707.185421400005,1700.893999800086,,,,,991,2022-11-25_14h12.08.665,test3,2022.2.4,None,
stimuli_position_map_1.csv,5.6341674744704,71.8991596638655,251.899159663866,low,322.97775331359,maps/google_map_1.png,18.9214063502755,objects/1/1_90.jpg,1,outdoors,TreeHouse.jpg,0,1,1,1,0,25,25,25,,,,,,,,,,,,,,,,,,,,,1707.185421400005,1707.7864237001631,1708.177100500092,1708.6688883001916,1709.185506900074,1709.6771529000252,1710.1852480000816,1710.6774155001622,1711.3146532000974,1711.3146532000974,1712.7116881001275,1712.7116881001275,1712.7116881001275,a,0.5791991997975856,1713.3020570999943,1713.3020570999943,1713.3020570999943,1714.2939069001004,1714.2939069001004,1714.2939069001004,1707.7864237001631,,,,,991,2022-11-25_14h12.08.665,test3,2022.2.4,None,
stimuli_position_map_1.csv,4.49069841269841,251.899159663866,163.90756302521,singletons,257.428571428571,maps/google_map_1.png,None,objects/1/1_118.jpg,0,indoors,Dropper.jpg,0,1,1,1,0,26,26,26,,,,,,,,,,,,,,,,,,,,,1714.2939069001004,1714.8932196001988,1715.2855104000773,1715.7772450000048,1716.2854293000419,1716.777342100162,1717.285602300195,1717.777385200141,1718.4385356002022,1718.4385356002022,1719.8188794001471,1719.8188794001471,1719.8188794001471,l,0.2888667997904122,1720.1188629001845,1720.1188629001845,1720.1188629001845,1721.1114748001564,1721.1114748001564,1721.1114748001564,1714.8932196001988,,,,,991,2022-11-25_14h12.08.665,test3,2022.2.4,None,
stimuli_position_map_1.csv,3.45666946311148,71.8991596638655,251.899159663866,high,198.153026547792,maps/google_map_1.png,143.746133116074,objects/1/1_119.jpg,0,outdoors,TailLight.jpg,0,1,1,1,0,27,27,27,,,,,,,,,,,,,,,,,,,,,1721.1114748001564,1721.7124352999963,1722.1106019001454,1722.6023596001323,1723.110438000178,1723.6021889999975,1724.1106175000314,1724.602395000169,1725.2540028002113,1725.2540028002113,1726.635728500085,1726.635728500085,1726.635728500085,l,0.9806470999028534,1727.627413700102,1727.627413700102,1727.627413700102,1728.6188229001127,1728.6188229001127,1728.6188229001127,1721.7124352999963,,,,,991,2022-11-25_14h12.08.665,test3,2022.2.4,None,
stimuli_position_map_1.csv,2.8606005115145,71.8991596638655,251.899159663866,high,163.983468812933,maps/google_map_1.png,177.915690850932,objects/1/1_84.jpg,0,outdoors,RamAnimal.jpg,0,1,1,1,0,28,28,28,,,,,,,,,,,,,,,,,,,,,1728.6188229001127,1729.2183163000736,1729.618976400001,1730.1112482000608,1730.6189372001681,1731.110554400133,1731.6191298000049,1732.1105721001513,1732.7692123001907,1732.7692123001907,1734.1440626000986,1734.1440626000986,1734.1440626000986,a,0.19935849984176457,1734.3524657001253,1734.3524657001253,1734.3524657001253,1735.343965300126,1735.343965300126,1735.343965300126,1729.2183163000736,,,,,991,2022-11-25_14h12.08.665,test3,2022.2.4,None,
stimuli_position_map_1.csv,5.82053114853003,71.8991596638655,251.899159663866,low,333.661021253314,maps/google_map_1.png,8.23813841055176,objects/1/1_90.jpg,1,outdoors,TreeHouse.jpg,0,1,1,1,0,29,29,29,,,,,,,,,,,,,,,,,,,,,1735.343965300126,1735.9508754999842,1736.3355912000407,1736.8275278001092,1737.3356373000424,1737.8274597001728,1738.3354981001467,1738.8273458001204,1739.4841732000932,1739.4841732000932,1740.869114200119,1740.869114200119,1740.869114200119,a,0.397122599883005,1741.2775235001463,1741.2775235001463,1741.2775235001463,1742.269089500187,1742.269089500187,1742.269089500187,1735.9508754999842,,,,,991,2022-11-25_14h12.08.665,test3,2022.2.4,None,
stimuli_position_map_1.csv,5.78876171210714,71.8991596638655,251.899159663866,low,331.839843369199,maps/google_map_1.png,10.0593162946665,objects/1/1_76.jpg,0,indoors,CoffeePot.jpg,0,1,1,1,0,30,30,30,,,,,,,,,,,,,,,,,,,,,1742.269089500187,1742.8694343001116,1743.2689339001663,1743.7607673001476,1744.269150200067,1744.7608962000813,1745.2691833002027,1745.7609115000814,1746.4123131001834,1746.4123131001834,1747.7942074001767,1747.7942074001767,1747.7942074001767,l,0.5402154000476003,1748.3441159001086,1748.3441159001086,1748.3441159001086,1749.3359072001185,1749.3359072001185,1749.3359072001185,1742.8694343001116,,,,,991,2022-11-25_14h12.08.665,test3,2022.2.4,None,
stimuli_position_map_1.csv,0.789928852218592,71.8991596638655,251.899159663866,medium,45.2825456685817,maps/google_map_1.png,63.3833860047162,objects/1/1_36.jpg,0,outdoors,Hay.jpg,0,1,1,1,0,31,31,31,,,,,,,,,,,,,,,,,,,,,1749.3359072001185,1749.9346144001465,1750.3360407000873,1750.8275375000667,1751.3357957000844,1751.8273601001129,1752.3360671000555,1752.827588400105,1753.4822035999969,1753.4822035999969,1754.860931500094,1754.860931500094,1754.860931500094,a,0.7276704998221248,1755.6025100001134,1755.6025100001134,1755.6025100001134,1756.5941833001561,1756.5941833001561,1756.5941833001561,1749.9346144001465,,,,,991,2022-11-25_14h12.08.665,test3,2022.2.4,None,
stimuli_position_map_1.csv,5.5828699554077,71.8991596638655,251.899159663866,low,320.037131201715,maps/google_map_1.png,21.8620284621501,objects/2/2_38.jpg,1,outdoors,Megaphone.jpg,0,1,1,1,0,32,32,32,,,,,,,,,,,,,,,,,,,,,1756.5941833001561,1757.1984130002093,1757.5880911001004,1758.086052000057,1758.5940213000868,1759.0860737001058,1759.5860531001817,1760.0774318000767,1760.726396500133,1760.726396500133,1762.1192910000682,1762.1192910000682,1762.1192910000682,l,0.28777970001101494,1762.419328500051,1762.419328500051,1762.419328500051,1763.411023600027,1763.411023600027,1763.411023600027,1757.1984130002093,,,,,991,2022-11-25_14h12.08.665,test3,2022.2.4,None,
stimuli_position_map_1.csv,1.37906478308972,71.8991596638655,251.899159663866,medium,79.054669094315,maps/google_map_1.png,97.1555094304494,objects/1/1_111.jpg,0,indoors,Card_TwoSpade.jpg,0,1,1,1,0,33,33,33,,,,,,,,,,,,,,,,,,,,,1763.411023600027,1764.010240800213,1764.4108653001022,1764.902584800031,1765.411005700007,1765.902536000125,1766.4109269001056,1766.9027091001626,1767.5526412001345,1767.5526412001345,1768.936158100143,1768.936158100143,1768.936158100143,l,0.26442479994148016,1769.2110213001724,1769.2110213001724,1769.2110213001724,1770.2033665000927,1770.2033665000927,1770.2033665000927,1764.010240800213,,,,,991,2022-11-25_14h12.08.665,test3,2022.2.4,None,
stimuli_position_map_1.csv,6.17893353171953,71.8991596638655,251.899159663866,low,354.206380799209,maps/google_map_1.png,12.3072211353433,objects/2/2_3.jpg,1,outdoors,ColumnMarble.jpg,0,1,1,1,0,34,34,34,,,,,,,,,,,,,,,,,,,,,1770.2033665000927,1770.805139000062,1771.20238420018,1771.6942772001494,1772.2025442000013,1772.6940262999851,1773.2025278999936,1773.694430500036,1774.3379242001101,1774.3379242001101,1775.72748770006,1775.72748770006,1775.72748770006,a,0.42431179992854595,1776.161081300117,1776.161081300117,1776.161081300117,1777.1526856999844,1777.1526856999844,1777.1526856999844,1770.805139000062,,,,,991,2022-11-25_14h12.08.665,test3,2022.2.4,None,
stimuli_position_map_1.csv,4.91171055088702,161.899159663866,227.260504201681,singletons,281.563025210084,maps/google_map_1.png,None,objects/1/1_8.jpg,0,outdoors,Bus_DoubleDecker.jpg,0,1,1,1,0,35,35,35,,,,,,,,,,,,,,,,,,,,,1777.1526856999844,1777.7536773001775,1778.144317300059,1778.6358891001437,1779.144212800078,1779.6358734001406,1780.1527206001338,1780.6442929999903,1781.2954870001413,1781.2954870001413,1782.6777885002084,1782.6777885002084,1782.6777885002084,a,0.45677229994907975,1783.144414700102,1783.144414700102,1783.144414700102,1784.1361382000614,1784.1361382000614,1784.1361382000614,1777.7536773001775,,,,,991,2022-11-25_14h12.08.665,test3,2022.2.4,None,
stimuli_position_map_1.csv,3.19435706630714,71.8991596638655,251.899159663866,high,183.116010170473,maps/google_map_1.png,158.783149493393,objects/1/1_86.jpg,0,indoors,Keys_Bunch.jpg,0,1,1,1,0,36,36,36,,,,,,,,,,,,,,,,,,,,,1784.1361382000614,1784.7409361000173,1785.1362326000817,1785.627710300032,1786.1362048999872,1786.627592800185,1787.136176600121,1787.6275876001455,1788.277965000132,1788.277965000132,1789.6610627002083,1789.6610627002083,1789.6610627002083,l,0.535414099926129,1790.2112134001218,1790.2112134001218,1790.2112134001218,1791.2026321000885,1791.2026321000885,1791.2026321000885,1784.7409361000173,,,,,991,2022-11-25_14h12.08.665,test3,2022.2.4,None,
stimuli_position_map_1.csv,6.22574895172022,71.8991596638655,251.899159663866,low,356.890067296063,maps/google_map_1.png,14.9909076321979,objects/1/1_41.jpg,0,outdoors,Clam.jpg,0,1,1,1,0,37,37,37,,,,,,,,,,,,,,,,,,,,,1791.2026321000885,1791.8016370001715,1792.194895700086,1792.6862259001937,1793.2024847001303,1793.6940670001786,1794.1942668000702,1794.6859984002076,1795.336754300166,1795.336754300166,1796.7278642000165,1796.7278642000165,1796.7278642000165,a,0.6265995998401195,1797.3692305001896,1797.3692305001896,1797.3692305001896,1798.3612896001432,1798.3612896001432,1798.3612896001432,1791.8016370001715,,,,,991,2022-11-25_14h12.08.665,test3,2022.2.4,None,
stimuli_position_map_1.csv,0.0869112558844378,71.8991596638655,251.899159663866,low,4.98217390420344,maps/google_map_1.png,23.0830142403379,objects/1/1_109.jpg,0,indoors,FloppyDisk.jpg,0,1,1,1,0,38,38,38,,,,,,,,,,,,,,,,,,,,,1798.3612896001432,1798.9658342001494,1799.352757500019,1799.8445381000638,1800.352668600157,1800.8443476001266,1801.3525964000728,1801.8443694000598,1802.4994453000836,1802.4994453000836,1803.8781865001656,1803.8781865001656,1803.8781865001656,l,0.20379800000227988,1804.094909900101,1804.094909900101,1804.094909900101,1805.0885067000054,1805.0885067000054,1805.0885067000054,1798.9658342001494,,,,,991,2022-11-25_14h12.08.665,test3,2022.2.4,None,
stimuli_position_map_1.csv,5.9109459929667,71.8991596638655,251.899159663866,low,338.844037813377,maps/google_map_1.png,3.05512185048809,objects/1/1_61.jpg,1,indoors,Bottle_Baby.jpg,0,1,1,1,0,39,39,39,,,,,,,,,,,,,,,,,,,,,1805.0885067000054,1805.688880900154,1806.0782137000933,1806.5695935999975,1807.0861830001231,1807.5780564001761,1808.0863550000358,1808.5781543001067,1809.2205346000846,1809.2205346000846,1810.6111974001396,1810.6111974001396,1810.6111974001396,l,0.3553958998527378,1810.9780226000585,1810.9780226000585,1810.9780226000585,1811.9696001000702,1811.9696001000702,1811.9696001000702,1805.688880900154,,,,,991,2022-11-25_14h12.08.665,test3,2022.2.4,None,
stimuli_position_map_1.csv,1.06997478991597,161.899159663866,76.4201680672269,singletons,61.3361344537815,maps/google_map_1.png,None,objects/1/1_61.jpg,1,indoors,Bottle_Baby.jpg,0,1,1,1,0,40,40,40,,,,,,,,,,,,,,,,,,,,,1811.9696001000702,1812.5736100000795,1812.9696980000008,1813.4610710002016,1813.9694527999964,1814.4610844000708,1814.969630900072,1815.4611613000743,1816.0975540000945,1816.0975540000945,1817.494850100018,1817.494850100018,1817.494850100018,l,0.23948559979908168,1817.7445588000119,1817.7445588000119,1817.7445588000119,1818.7362970001996,1818.7362970001996,1818.7362970001996,1812.5736100000795,,,,,991,2022-11-25_14h12.08.665,test3,2022.2.4,None,
stimuli_position_map_1.csv,1.80674603174603,341.899159663866,350.949579831933,singletons,103.571428571429,maps/google_map_1.png,None,objects/1/1_139.jpg,0,outdoors,TubeRing.jpg,0,1,1,1,0,41,41,41,,,,,,,,,,,,,,,,,,,,,1818.7362970001996,1819.334648200078,1819.7364447000436,1820.2280359000433,1820.7364739000332,1821.227908700006,1821.7364929001778,1822.2280706001911,1822.8733250000514,1822.8733250000514,1824.261231200071,1824.261231200071,1824.261231200071,a,0.5976988999173045,1824.8697635000572,1824.8697635000572,1824.8697635000572,1825.8612658001948,1825.8612658001948,1825.8612658001948,1819.334648200078,,,,,991,2022-11-25_14h12.08.665,test3,2022.2.4,None,
stimuli_position_map_1.csv,3.07446109398633,71.8991596638655,251.899159663866,high,176.242992648898,maps/google_map_1.png,165.656167014968,objects/1/1_130.jpg,0,indoors,PillBottle_Spilled.jpg,0,1,1,1,0,42,42,42,,,,,,,,,,,,,,,,,,,,,1825.8612658001948,1826.4642390999943,1826.8614782001823,1827.3528601001017,1827.862449400127,1828.3612846001051,1828.8612118000165,1829.3530926001258,1830.0054948001634,1830.0054948001634,1831.386396100046,1831.386396100046,1831.386396100046,l,0.49238820001482964,1831.894870800199,1831.894870800199,1831.894870800199,1832.8864194999915,1832.8864194999915,1832.8864194999915,1826.4642390999943,,,,,991,2022-11-25_14h12.08.665,test3,2022.2.4,None,
stimuli_position_map_1.csv,2.78366510420471,71.8991596638655,251.899159663866,high,159.573158839761,maps/google_map_1.png,177.673999175895,objects/1/1_47.jpg,0,outdoors,Caribou.jpg,0,1,1,1,0,43,43,43,,,,,,,,,,,,,,,,,,,,,1832.8864194999915,1833.4882416999899,1833.8780356000643,1834.3696494000033,1834.8781783999875,1835.3697191001847,1835.8782045000698,1836.3697974001989,1837.0308865001425,1837.0308865001425,1838.4113200001884,1838.4113200001884,1838.4113200001884,a,0.29558319970965385,1838.7198249001522,1838.7198249001522,1838.7198249001522,1839.7114974001888,1839.7114974001888,1839.7114974001888,1833.4882416999899,,,,,991,2022-11-25_14h12.08.665,test3,2022.2.4,None,
stimuli_position_map_1.csv,5.93195336185991,71.8991596638655,251.899159663866,low,340.048281890059,maps/google_map_1.png,1.85087777380689,objects/1/1_59.jpg,0,indoors,Candy_Toffee.jpg,0,1,1,1,0,44,44,44,,,,,,,,,,,,,,,,,,,,,1839.7114974001888,1840.3115939002018,1840.7114510000683,1841.20389910019,1841.7114770000335,1842.2030935999937,1842.7031196001917,1843.1950384001248,1843.85234880005,1843.85234880005,1845.2366182000842,1845.2366182000842,1845.2366182000842,l,0.4251674998085946,1845.6697398000397,1845.6697398000397,1845.6697398000397,1846.6614241001662,1846.6614241001662,1846.6614241001662,1840.3115939002018,,,,,991,2022-11-25_14h12.08.665,test3,2022.2.4,None,
stimuli_position_map_1.csv,5.70597886186679,71.8991596638655,251.899159663866,low,327.094329661153,maps/google_map_1.png,14.8048300027121,objects/1/1_83.jpg,0,indoors,Chair_Office.jpg,0,1,1,1,0,45,45,45,,,,,,,,,,,,,,,,,,,,,1846.6614241001662,1847.2635475001298,1847.6613600000273,1848.1529469001107,1848.661522100214,1849.1533830000553,1849.6616663001478,1850.156140500214,1850.8033016000409,1850.8033016000409,1852.1865056001116,1852.1865056001116,1852.1865056001116,l,0.08230819995515049,1852.2783439999912,1852.2783439999912,1852.2783439999912,1853.269678800134,1853.269678800134,1853.269678800134,1847.2635475001298,,,,,991,2022-11-25_14h12.08.665,test3,2022.2.4,None,
stimuli_position_map_1.csv,0.222940635853876,71.8991596638655,251.899159663866,low,12.7800364502222,maps/google_map_1.png,30.8808767863566,objects/1/1_34.jpg,0,indoors,Corkscrew.jpg,0,1,1,1,0,46,46,46,,,,,,,,,,,,,,,,,,,,,1853.269678800134,1853.8722212000284,1854.269910100149,1854.762442999985,1855.2699022002053,1855.7613944001496,1856.2699984000064,1856.7614666000009,1857.411443500081,1857.411443500081,1858.79480410018,1858.79480410018,1858.79480410018,l,0.22338849981315434,1859.0283551001921,1859.0283551001921,1859.0283551001921,1860.0199800000992,1860.0199800000992,1860.0199800000992,1853.8722212000284,,,,,991,2022-11-25_14h12.08.665,test3,2022.2.4,None,
